"rt","stimulus","response","trial_type","trial_index","time_elapsed","internal_node_id","subject","condition","trial_num","exp_part","word","test","learned","LOP","view_history","block_num","correct","slider_start","question_order"
"4617","<div class=""Instruction""><p id=""Header""> Herzlich Willkommen zu dieser Online-Studie der Universität Freiburg!</p>In diesem Experiment wollen wir das menschliche Gedächtnis untersuchen. Daher wird es Ihre Aufgabe sein, sich Wörter zu merken, die auf dem Bildschirm präsentiert werden. Später werden wir Sie darum bitten, sich an diese Wörter zu erinnern. <br><br>Das Experiment wird etwa XXX Minuten dauern. Bitte sorgen Sie dafür, dass Sie das ganze Experiment ohne Unterbrechungen durchführen können. Vermeiden Sie bitte außerdem Ablenkungen jeglicher Art (z.B. durch Fernseher, Musik, Handy, Haustiere etc.). Sie können an dieser Studie nur von einem PC, nicht von einem Tablet oder Smartphone aus teilnehmen. <br><br><em>Wichtig: Bitte schließen Sie das Browser-Fenster während der Studie nicht und laden Sie diese Seite nicht neu! </em><br><br>","0","html-button-response","0","4620","0.0-0.0","fj0sfnk5mm1ctwp","LOP","0","instr","","","","","","","","",""
"1815","<div class=""Instruction""><p id=""Header"">Informationen über die Studie</p><em>Freiwilligkeit und Anonymität</em><br>Die Teilnahme an dieser Studie ist freiwillig. Sie können jederzeit und ohne Angabe von Gründen Ihre Einwilligung zur Teilnahme an der Studie widerrufen, indem Sie das Browser-Fenster schließen.<br><br><em>Umgang mit Ihren Daten</em><br>Ihre Daten werden ausschließlich anonymisiert gespeichert. Entsprechend ist nach Abschluss dieser Datenerhebung auch keine gezielte Löschung Ihres persönlichen Datensatzes mehr möglich, da wir Sie diesem nicht zuordnen können. Bitte machen Sie sich bewusst, dass die Ergebnisse der Studie als wissenschaftliche Publikation veröffentlicht werden können. Die Daten dieser Studie können zur Gewährleistung von Transparenz in der Wissenschaft für eine Nachnutzung durch Dritte als offene Daten im Internet in einem Datenarchiv zugänglich gemacht werden. Damit folgt diese Studie den Empfehlungen der Deutschen Forschungsgemeinschaft (DFG) und der Deutschen Gesellschaft für Psychologie (DGPs) zur Qualitätssicherung in der Forschung.<br><br><em>Ansprechperson bei Fragen</em><br>Wenn sie jetzt oder nach dem Versuch Fragen zu diesen Informationen oder zum Experiment haben, wenden Sie sich bitte an <em>mjakob@cs.uni-freiburg.de.</em><br><br>Hiermit versichere ich, dass ich die oben beschriebenen Teilnahmeinformationen verstanden habe und mit den genannten Teilnahmebedingungen einverstanden bin.","1","html-button-response","1","6436","0.0-1.0","fj0sfnk5mm1ctwp","LOP","0","instr","","","","","","","","",""
"3583.000000000002","","","instructions","2","10021","0.0-2.0","fj0sfnk5mm1ctwp","LOP","0","instr","","","","","[{""page_index"":0,""viewing_time"":2647},{""page_index"":1,""viewing_time"":935}]","","","",""
"6373.999999999998","","{""age"":""23"",""native"":""deutsch"",""gender"":""w"",""subject"":""""}","survey-text","3","16428","0.0-3.0-0.0","fj0sfnk5mm1ctwp","LOP","0","demographics","","","","","","","","",""
"1639","<div class=""Instruction""><p id=""Header"">Lernphase</p><p>Nun beginnt die Lernphase des Experiments, in der Sie sich Wörter möglichst gut einprägen sollen. Dafür werden gleich mehrere Wörter nacheinander auf dem Bildschirm erscheinen. Bitte versuchen Sie, sich diese Wörter möglichst gut zu merken, da Sie sich im nächsten Teil daran erinnern sollen. </p>Für jedes Wort sollen Sie eine dieser beiden Aufgaben bearbeiten: <ul><li><span class=""shallow-prompt""><strong>Entweder: </strong>Geben Sie an, wie viele Vokale das Wort hat. </span>""ä"", ""ü"" und ""ö"" zählen dabei nicht als Vokale.</li><li><span class=""deep-prompt""><strong>Oder: </strong>Geben Sie das erste Wort an, das Ihnen in Zusammenhang mit dem angezeigten Wort in den Sinn kommt.</span></li></ul>Schreiben Sie Ihre Antwort bitte in das Textfeld unter dem Wort. Welche Aufgabe Sie jeweils ausführen sollen, wird in jedem Durchgang zusammen mit farblicher Markierung wie oben angezeigt.<br><p>Insgesamt wird es <strong>vier Blöcke</strong> geben, zwischen denen Sie jeweils eine kurze Pause machen können. </p><em>Bitte benutzen Sie keine Hilfsmittel, wie Papier und Stift, Handy, oder einen Text-Editor auf dem Computer, sondern versuchen Sie, sich die Wörter ohne Hilfsmittel möglichst gut zu merken!</em> Da wir in dieser Studie das menschliche Gedächtnis untersuchen, ist dies essentiell. Danke für Ihre Compliance! <br><br>Klicken Sie auf „Weiter“, wenn Sie bereit sind, mit der Lernphase zu beginnen.</div>","0","html-button-response","4","18069","0.0-4.0","fj0sfnk5mm1ctwp","LOP","0","instr","","","","","","","","",""
"1820","","{""Q0"":""w""}","survey-text","5","19898","0.0-5.0-0.0-0.0","fj0sfnk5mm1ctwp","LOP","0","learning_1","KLINGEL","true","true","deep","","1","","",""
"588","","{""Q0"":""w""}","survey-text","6","20493","0.0-5.0-0.1-0.1","fj0sfnk5mm1ctwp","LOP","0","learning_1","STIFT","true","true","deep","","1","","",""
"465","","{""Q0"":""w""}","survey-text","7","20964","0.0-5.0-0.2-0.2","fj0sfnk5mm1ctwp","LOP","0","learning_1","BLOCK","true","true","shallow","","1","","",""
"449.99999999999636","","{""Q0"":""w""}","survey-text","8","21421","0.0-5.0-0.3-0.3","fj0sfnk5mm1ctwp","LOP","0","learning_1","DICHTER","true","true","deep","","1","","",""
"402","","{""Q0"":""w""}","survey-text","9","21831","0.0-5.0-0.4-0.4","fj0sfnk5mm1ctwp","LOP","0","learning_1","STÄTTE","true","true","deep","","1","","",""
"365","","{""Q0"":""w""}","survey-text","10","22202","0.0-5.0-0.5-0.5","fj0sfnk5mm1ctwp","LOP","0","learning_1","MATROSE","true","true","deep","","1","","",""
"288.00000000000364","","{""Q0"":""w""}","survey-text","11","22497","0.0-5.0-0.6-0.6","fj0sfnk5mm1ctwp","LOP","0","learning_1","DIENST","true","true","deep","","1","","",""
"340","","{""Q0"":""w""}","survey-text","12","22843","0.0-5.0-0.7-0.7","fj0sfnk5mm1ctwp","LOP","0","learning_1","DOSE","true","true","deep","","1","","",""
"338.00000000000364","","{""Q0"":""w""}","survey-text","13","23187","0.0-5.0-0.8-0.8","fj0sfnk5mm1ctwp","LOP","0","learning_1","KLÄRUNG","true","true","shallow","","1","","",""
"346.99999999999636","","{""Q0"":""w""}","survey-text","14","23539","0.0-5.0-0.9-0.9","fj0sfnk5mm1ctwp","LOP","0","learning_1","PEDAL","true","true","deep","","1","","",""
"339","","{""Q0"":""w""}","survey-text","15","23884","0.0-5.0-0.10-0.10","fj0sfnk5mm1ctwp","LOP","0","learning_1","PELZ","true","true","deep","","1","","",""
"339","","{""Q0"":""w""}","survey-text","16","24229","0.0-5.0-0.11-0.11","fj0sfnk5mm1ctwp","LOP","0","learning_1","BISCHOF","true","true","deep","","1","","",""
"387.00000000000364","","{""Q0"":""w""}","survey-text","17","24623","0.0-5.0-0.12-0.12","fj0sfnk5mm1ctwp","LOP","0","learning_1","MUSTER","true","true","deep","","1","","",""
"331.99999999999636","","{""Q0"":""w""}","survey-text","18","24961","0.0-5.0-0.13-0.13","fj0sfnk5mm1ctwp","LOP","0","learning_1","LISTE","true","true","deep","","1","","",""
"401","","{""Q0"":""w""}","survey-text","19","25367","0.0-5.0-0.14-0.14","fj0sfnk5mm1ctwp","LOP","0","learning_1","LUNGE","true","true","shallow","","1","","",""
"344","","{""Q0"":""w""}","survey-text","20","25715","0.0-5.0-0.15-0.15","fj0sfnk5mm1ctwp","LOP","0","learning_1","TRAINER","true","true","shallow","","1","","",""
"322","","{""Q0"":""w""}","survey-text","21","26042","0.0-5.0-0.16-0.16","fj0sfnk5mm1ctwp","LOP","0","learning_1","ONKEL","true","true","shallow","","1","","",""
"373","","{""Q0"":""w""}","survey-text","22","26421","0.0-5.0-0.17-0.17","fj0sfnk5mm1ctwp","LOP","0","learning_1","ZUSATZ","true","true","deep","","1","","",""
"362.00000000000364","","{""Q0"":""w""}","survey-text","23","26789","0.0-5.0-0.18-0.18","fj0sfnk5mm1ctwp","LOP","0","learning_1","KUGEL","true","true","shallow","","1","","",""
"347","","{""Q0"":""w""}","survey-text","24","27141","0.0-5.0-0.19-0.19","fj0sfnk5mm1ctwp","LOP","0","learning_1","EISEN","true","true","deep","","1","","",""
"340","","{""Q0"":""w""}","survey-text","25","27486","0.0-5.0-0.20-0.20","fj0sfnk5mm1ctwp","LOP","0","learning_1","BUTTER","true","true","shallow","","1","","",""
"366","","{""Q0"":""w""}","survey-text","26","27857","0.0-5.0-0.21-0.21","fj0sfnk5mm1ctwp","LOP","0","learning_1","SCHIRM","true","true","shallow","","1","","",""
"380","","{""Q0"":""w""}","survey-text","27","28242","0.0-5.0-0.22-0.22","fj0sfnk5mm1ctwp","LOP","0","learning_1","WINTER","true","true","shallow","","1","","",""
"355.99999999999636","","{""Q0"":""w""}","survey-text","28","28604","0.0-5.0-0.23-0.23","fj0sfnk5mm1ctwp","LOP","0","learning_1","WAHRUNG","true","true","shallow","","1","","",""
"363","","{""Q0"":""w""}","survey-text","29","28972","0.0-5.0-0.24-0.24","fj0sfnk5mm1ctwp","LOP","0","learning_1","TRIKOT","true","true","deep","","1","","",""
"366","<p id=""Header"">Pause</p><p style=""margin-top: 20% max-width: 85%;"">Block 1/4 der Lernphase ist geschafft! Sie können an dieser Stelle eine kurze Pause machen.</p><p>Klicken Sie auf ""Weiter"", um den nächsten Block zu starten.</p>","0","html-button-response","30","29340","0.0-6.0","fj0sfnk5mm1ctwp","LOP","0","instr","","","","","","","","",""
"902.0000000000036","","{""Q0"":""w""}","survey-text","31","30248","0.0-7.0-0.0-0.0","fj0sfnk5mm1ctwp","LOP","0","learning_1","VERS","true","true","deep","","2","","",""
"402.99999999999636","","{""Q0"":""w""}","survey-text","32","30657","0.0-7.0-0.1-0.1","fj0sfnk5mm1ctwp","LOP","0","learning_1","VORSTAND","true","true","shallow","","2","","",""
"401","","{""Q0"":""w""}","survey-text","33","31063","0.0-7.0-0.2-0.2","fj0sfnk5mm1ctwp","LOP","0","learning_1","FASSUNG","true","true","shallow","","2","","",""
"364","","{""Q0"":""w""}","survey-text","34","31433","0.0-7.0-0.3-0.3","fj0sfnk5mm1ctwp","LOP","0","learning_1","NUTZEN","true","true","deep","","2","","",""
"339","","{""Q0"":""w""}","survey-text","35","31778","0.0-7.0-0.4-0.4","fj0sfnk5mm1ctwp","LOP","0","learning_1","GERÜST","true","true","deep","","2","","",""
"357.00000000000364","","{""Q0"":""w""}","survey-text","36","32141","0.0-7.0-0.5-0.5","fj0sfnk5mm1ctwp","LOP","0","learning_1","KAPSEL","true","true","shallow","","2","","",""
"369","","{""Q0"":""w""}","survey-text","37","32516","0.0-7.0-0.6-0.6","fj0sfnk5mm1ctwp","LOP","0","learning_1","SCHILD","true","true","shallow","","2","","",""
"354","","{""Q0"":""w""}","survey-text","38","32876","0.0-7.0-0.7-0.7","fj0sfnk5mm1ctwp","LOP","0","learning_1","KURIER","true","true","shallow","","2","","",""
"342","","{""Q0"":""w""}","survey-text","39","33223","0.0-7.0-0.8-0.8","fj0sfnk5mm1ctwp","LOP","0","learning_1","SCHNITT","true","true","shallow","","2","","",""
"316","","{""Q0"":""w""}","survey-text","40","33544","0.0-7.0-0.9-0.9","fj0sfnk5mm1ctwp","LOP","0","learning_1","BRILLE","true","true","shallow","","2","","",""
"347","","{""Q0"":""w""}","survey-text","41","33897","0.0-7.0-0.10-0.10","fj0sfnk5mm1ctwp","LOP","0","learning_1","HEMD","true","true","deep","","2","","",""
"324","","{""Q0"":""w""}","survey-text","42","34225","0.0-7.0-0.11-0.11","fj0sfnk5mm1ctwp","LOP","0","learning_1","UMSTAND","true","true","shallow","","2","","",""
"285","","{""Q0"":""""}","survey-text","43","34515","0.0-7.0-0.12-0.12","fj0sfnk5mm1ctwp","LOP","0","learning_1","TINTE","true","true","deep","","2","","",""
"266","","{""Q0"":""w""}","survey-text","44","34786","0.0-7.0-0.13-0.13","fj0sfnk5mm1ctwp","LOP","0","learning_1","KONZERN","true","true","deep","","2","","",""
"305","","{""Q0"":""w""}","survey-text","45","35097","0.0-7.0-0.14-0.14","fj0sfnk5mm1ctwp","LOP","0","learning_1","KABEL","true","true","shallow","","2","","",""
"255.00000000000728","","{""Q0"":""""}","survey-text","46","35356","0.0-7.0-0.15-0.15","fj0sfnk5mm1ctwp","LOP","0","learning_1","TOPF","true","true","deep","","2","","",""
"314","","{""Q0"":""w""}","survey-text","47","35675","0.0-7.0-0.16-0.16","fj0sfnk5mm1ctwp","LOP","0","learning_1","STAND","true","true","deep","","2","","",""
"278.9999999999927","","{""Q0"":""""}","survey-text","48","35959","0.0-7.0-0.17-0.17","fj0sfnk5mm1ctwp","LOP","0","learning_1","MINUTE","true","true","shallow","","2","","",""
"275","","{""Q0"":""w""}","survey-text","49","36238","0.0-7.0-0.18-0.18","fj0sfnk5mm1ctwp","LOP","0","learning_1","WÄHRUNG","true","true","deep","","2","","",""
"306.9999999999927","","{""Q0"":""w""}","survey-text","50","36550","0.0-7.0-0.19-0.19","fj0sfnk5mm1ctwp","LOP","0","learning_1","WEISUNG","true","true","shallow","","2","","",""
"305.9999999999927","","{""Q0"":""""}","survey-text","51","36860","0.0-7.0-0.20-0.20","fj0sfnk5mm1ctwp","LOP","0","learning_1","SIEDLUNG","true","true","shallow","","2","","",""
"284.9999999999927","","{""Q0"":""""}","survey-text","52","37148","0.0-7.0-0.21-0.21","fj0sfnk5mm1ctwp","LOP","0","learning_1","BLATT","true","true","shallow","","2","","",""
"321","","{""Q0"":""w""}","survey-text","53","37475","0.0-7.0-0.22-0.22","fj0sfnk5mm1ctwp","LOP","0","learning_1","TEXT","true","true","deep","","2","","",""
"284","","{""Q0"":""""}","survey-text","54","37763","0.0-7.0-0.23-0.23","fj0sfnk5mm1ctwp","LOP","0","learning_1","SUCHE","true","true","shallow","","2","","",""
"243","","{""Q0"":""""}","survey-text","55","38012","0.0-7.0-0.24-0.24","fj0sfnk5mm1ctwp","LOP","0","learning_1","NETZ","true","true","deep","","2","","",""
"287","<p id=""Header"">Pause</p><p style=""margin-top: 20% max-width: 85%;"">Block 2/4 der Lernphase ist geschafft! Sie können an dieser Stelle eine kurze Pause machen.</p><p>Klicken Sie auf ""Weiter"", um den nächsten Block zu starten.</p>","0","html-button-response","56","38299","0.0-8.0","fj0sfnk5mm1ctwp","LOP","0","instr","","","","","","","","",""
"933","","{""Q0"":""w""}","survey-text","57","39239","0.0-9.0-0.0-0.0","fj0sfnk5mm1ctwp","LOP","0","learning_1","REDE","true","true","deep","","3","","",""
"315.9999999999927","","{""Q0"":""w""}","survey-text","58","39560","0.0-9.0-0.1-0.1","fj0sfnk5mm1ctwp","LOP","0","learning_1","ABRUF","true","true","shallow","","3","","",""
"322","","{""Q0"":""w""}","survey-text","59","39888","0.0-9.0-0.2-0.2","fj0sfnk5mm1ctwp","LOP","0","learning_1","IMPORT","true","true","deep","","3","","",""
"317","","{""Q0"":""""}","survey-text","60","40210","0.0-9.0-0.3-0.3","fj0sfnk5mm1ctwp","LOP","0","learning_1","ROSINE","true","true","deep","","3","","",""
"297","","{""Q0"":""""}","survey-text","61","40512","0.0-9.0-0.4-0.4","fj0sfnk5mm1ctwp","LOP","0","learning_1","HÖHLE","true","true","shallow","","3","","",""
"320","","{""Q0"":""w""}","survey-text","62","40835","0.0-9.0-0.5-0.5","fj0sfnk5mm1ctwp","LOP","0","learning_1","PHASE","true","true","deep","","3","","",""
"328","","{""Q0"":""""}","survey-text","63","41166","0.0-9.0-0.6-0.6","fj0sfnk5mm1ctwp","LOP","0","learning_1","GEMISCH","true","true","deep","","3","","",""
"299","","{""Q0"":""""}","survey-text","64","41468","0.0-9.0-0.7-0.7","fj0sfnk5mm1ctwp","LOP","0","learning_1","RAND","true","true","shallow","","3","","",""
"306","","{""Q0"":""""}","survey-text","65","41781","0.0-9.0-0.8-0.8","fj0sfnk5mm1ctwp","LOP","0","learning_1","KASSE","true","true","deep","","3","","",""
"293","","{""Q0"":""""}","survey-text","66","42079","0.0-9.0-0.9-0.9","fj0sfnk5mm1ctwp","LOP","0","learning_1","HERD","true","true","shallow","","3","","",""
"278.0000000000073","","{""Q0"":""""}","survey-text","67","42363","0.0-9.0-0.10-0.10","fj0sfnk5mm1ctwp","LOP","0","learning_1","EINHEIT","true","true","deep","","3","","",""
"308","","{""Q0"":""w""}","survey-text","68","42674","0.0-9.0-0.11-0.11","fj0sfnk5mm1ctwp","LOP","0","learning_1","HAUBE","true","true","shallow","","3","","",""
"299","","{""Q0"":""w""}","survey-text","69","42977","0.0-9.0-0.12-0.12","fj0sfnk5mm1ctwp","LOP","0","learning_1","TARIF","true","true","deep","","3","","",""
"307","","{""Q0"":""""}","survey-text","70","43290","0.0-9.0-0.13-0.13","fj0sfnk5mm1ctwp","LOP","0","learning_1","GERÄT","true","true","shallow","","3","","",""
"276","","{""Q0"":""""}","survey-text","71","43571","0.0-9.0-0.14-0.14","fj0sfnk5mm1ctwp","LOP","0","learning_1","NOTIZ","true","true","shallow","","3","","",""
"333","","{""Q0"":""""}","survey-text","72","43908","0.0-9.0-0.15-0.15","fj0sfnk5mm1ctwp","LOP","0","learning_1","METHODE","true","true","deep","","3","","",""
"289","","{""Q0"":""w""}","survey-text","73","44201","0.0-9.0-0.16-0.16","fj0sfnk5mm1ctwp","LOP","0","learning_1","STUDIO","true","true","deep","","3","","",""
"330","","{""Q0"":""w""}","survey-text","74","44535","0.0-9.0-0.17-0.17","fj0sfnk5mm1ctwp","LOP","0","learning_1","BECHER","true","true","deep","","3","","",""
"284","","{""Q0"":""w""}","survey-text","75","44823","0.0-9.0-0.18-0.18","fj0sfnk5mm1ctwp","LOP","0","learning_1","WAPPEN","true","true","shallow","","3","","",""
"315","","{""Q0"":""w""}","survey-text","76","45143","0.0-9.0-0.19-0.19","fj0sfnk5mm1ctwp","LOP","0","learning_1","JÜNGER","true","true","deep","","3","","",""
"281.0000000000073","","{""Q0"":""w""}","survey-text","77","45429","0.0-9.0-0.20-0.20","fj0sfnk5mm1ctwp","LOP","0","learning_1","SCHÄDEL","true","true","deep","","3","","",""
"343","","{""Q0"":""w""}","survey-text","78","45777","0.0-9.0-0.21-0.21","fj0sfnk5mm1ctwp","LOP","0","learning_1","KOFFER","true","true","deep","","3","","",""
"283","","{""Q0"":""w""}","survey-text","79","46065","0.0-9.0-0.22-0.22","fj0sfnk5mm1ctwp","LOP","0","learning_1","SCHÜLER","true","true","shallow","","3","","",""
"293.0000000000073","","{""Q0"":""w""}","survey-text","80","46363","0.0-9.0-0.23-0.23","fj0sfnk5mm1ctwp","LOP","0","learning_1","PFLAUME","true","true","shallow","","3","","",""
"280.9999999999927","","{""Q0"":""w""}","survey-text","81","46649","0.0-9.0-0.24-0.24","fj0sfnk5mm1ctwp","LOP","0","learning_1","IMBISS","true","true","shallow","","3","","",""
"327","<p id=""Header"">Pause</p><p style=""margin-top: 20% max-width: 85%;"">Block 3/4 der Lernphase ist geschafft! Sie können an dieser Stelle eine kurze Pause machen.</p><p>Klicken Sie auf ""Weiter"", um den nächsten Block zu starten.</p>","0","html-button-response","82","46977","0.0-10.0","fj0sfnk5mm1ctwp","LOP","0","instr","","","","","","","","",""
"557","","{""Q0"":""""}","survey-text","83","47540","0.0-11.0-0.0-0.0","fj0sfnk5mm1ctwp","LOP","0","learning_1","WADE","true","true","shallow","","4","","",""
"297.9999999999927","","{""Q0"":""""}","survey-text","84","47843","0.0-11.0-0.1-0.1","fj0sfnk5mm1ctwp","LOP","0","learning_1","KRAGEN","true","true","deep","","4","","",""
"297","","{""Q0"":""w""}","survey-text","85","48142","0.0-11.0-0.2-0.2","fj0sfnk5mm1ctwp","LOP","0","learning_1","FLASCHE","true","true","shallow","","4","","",""
"277","","{""Q0"":""w""}","survey-text","86","48425","0.0-11.0-0.3-0.3","fj0sfnk5mm1ctwp","LOP","0","learning_1","KLINKE","true","true","shallow","","4","","",""
"269.9999999999927","","{""Q0"":""w""}","survey-text","87","48700","0.0-11.0-0.4-0.4","fj0sfnk5mm1ctwp","LOP","0","learning_1","FERSE","true","true","shallow","","4","","",""
"266","","{""Q0"":""w""}","survey-text","88","48968","0.0-11.0-0.5-0.5","fj0sfnk5mm1ctwp","LOP","0","learning_1","SOHLE","true","true","shallow","","4","","",""
"355","","{""Q0"":""ww""}","survey-text","89","49329","0.0-11.0-0.6-0.6","fj0sfnk5mm1ctwp","LOP","0","learning_1","HOSE","true","true","shallow","","4","","",""
"254","","{""Q0"":""""}","survey-text","90","49587","0.0-11.0-0.7-0.7","fj0sfnk5mm1ctwp","LOP","0","learning_1","PRIESTER","true","true","shallow","","4","","",""
"333","","{""Q0"":""w""}","survey-text","91","49925","0.0-11.0-0.8-0.8","fj0sfnk5mm1ctwp","LOP","0","learning_1","SPEKTRUM","true","true","deep","","4","","",""
"330.9999999999927","","{""Q0"":""w""}","survey-text","92","50261","0.0-11.0-0.9-0.9","fj0sfnk5mm1ctwp","LOP","0","learning_1","NONNE","true","true","deep","","4","","",""
"316","","{""Q0"":""""}","survey-text","93","50581","0.0-11.0-0.10-0.10","fj0sfnk5mm1ctwp","LOP","0","learning_1","HÖRER","true","true","deep","","4","","",""
"356","","{""Q0"":""""}","survey-text","94","50942","0.0-11.0-0.11-0.11","fj0sfnk5mm1ctwp","LOP","0","learning_1","LEINE","true","true","deep","","4","","",""
"268","","{""Q0"":""""}","survey-text","95","51215","0.0-11.0-0.12-0.12","fj0sfnk5mm1ctwp","LOP","0","learning_1","KASSETTE","true","true","shallow","","4","","",""
"314","","{""Q0"":""""}","survey-text","96","51535","0.0-11.0-0.13-0.13","fj0sfnk5mm1ctwp","LOP","0","learning_1","STAAT","true","true","deep","","4","","",""
"294","","{""Q0"":""w""}","survey-text","97","51832","0.0-11.0-0.14-0.14","fj0sfnk5mm1ctwp","LOP","0","learning_1","MERKMAL","true","true","shallow","","4","","",""
"324","","{""Q0"":""w""}","survey-text","98","52161","0.0-11.0-0.15-0.15","fj0sfnk5mm1ctwp","LOP","0","learning_1","ANLASS","true","true","shallow","","4","","",""
"266","","{""Q0"":""""}","survey-text","99","52432","0.0-11.0-0.16-0.16","fj0sfnk5mm1ctwp","LOP","0","learning_1","SORTE","true","true","deep","","4","","",""
"321.0000000000073","","{""Q0"":""""}","survey-text","100","52756","0.0-11.0-0.17-0.17","fj0sfnk5mm1ctwp","LOP","0","learning_1","HINSICHT","true","true","shallow","","4","","",""
"250","","{""Q0"":""""}","survey-text","101","53012","0.0-11.0-0.18-0.18","fj0sfnk5mm1ctwp","LOP","0","learning_1","KANNE","true","true","deep","","4","","",""
"302","","{""Q0"":""w""}","survey-text","102","53318","0.0-11.0-0.19-0.19","fj0sfnk5mm1ctwp","LOP","0","learning_1","DRAHT","true","true","shallow","","4","","",""
"273","","{""Q0"":""w""}","survey-text","103","53596","0.0-11.0-0.20-0.20","fj0sfnk5mm1ctwp","LOP","0","learning_1","PERIODE","true","true","deep","","4","","",""
"279","","{""Q0"":""w""}","survey-text","104","53878","0.0-11.0-0.21-0.21","fj0sfnk5mm1ctwp","LOP","0","learning_1","TAKT","true","true","shallow","","4","","",""
"269","","{""Q0"":""w""}","survey-text","105","54152","0.0-11.0-0.22-0.22","fj0sfnk5mm1ctwp","LOP","0","learning_1","STOCK","true","true","deep","","4","","",""
"268","","{""Q0"":""w""}","survey-text","106","54426","0.0-11.0-0.23-0.23","fj0sfnk5mm1ctwp","LOP","0","learning_1","SCHLAMM","true","true","shallow","","4","","",""
"283","","{""Q0"":""w""}","survey-text","107","54714","0.0-11.0-0.24-0.24","fj0sfnk5mm1ctwp","LOP","0","learning_1","POLIZIST","true","true","shallow","","4","","",""
"1432","<p id=""Header"">Die Lernphase ist nun geschafft!</p><p class=""Instruction"">Bevor es mit der Testphase weitergeht, bitten wir Sie, drei kurze Rechenaufgaben bearbeiten. Die Aufgaben werden nacheinander auf dem Bildschirm erscheinen. Wenn Sie die <em>richtige</em> Antwort eingeben, gelangen Sie direkt zur nächsten Aufgabe.</p><p class=""Instruction"">Wenn Sie bereit sind, mit den Rechenaufgaben zu beginnen, klicken Sie auf „Weiter“.</p>","0","html-button-response","108","56148","0.0-12.0","fj0sfnk5mm1ctwp","LOP","0","instr","","","","","","","","",""
"10720","","{""calc"":""3""}","survey-text","109","66874","0.0-13.0-0.0-0.0","fj0sfnk5mm1ctwp","LOP","0","instr","","","","","","","","",""
"10913","","{""calc"":""19""}","survey-text","110","77792","0.0-13.0-1.0-0.0","fj0sfnk5mm1ctwp","LOP","0","instr","","","","","","","","",""
"2994","","{""calc"":""1""}","survey-text","111","80792","0.0-13.0-2.0-0.0","fj0sfnk5mm1ctwp","LOP","0","instr","","","","","","","","",""
"14813","","{""calc"":""43""}","survey-text","112","95611","0.0-13.0-2.1-0.1","fj0sfnk5mm1ctwp","LOP","0","instr","","","","","","","","",""
"12563.000000000015","","{""calc"":""41""}","survey-text","113","108178","0.0-13.0-2.2-0.2","fj0sfnk5mm1ctwp","LOP","0","instr","","","","","","","","",""
"6317","","","instructions","114","114496","0.0-14.0","fj0sfnk5mm1ctwp","LOP","0","instr","","","","","[{""page_index"":0,""viewing_time"":1137},{""page_index"":1,""viewing_time"":789},{""page_index"":2,""viewing_time"":423},{""page_index"":3,""viewing_time"":3360},{""page_index"":4,""viewing_time"":608}]","","","",""
"null","","null","html-keyboard-response","115","114999","0.0-15.0-0.0-0.0","fj0sfnk5mm1ctwp","LOP","0","test_1","EISEN","true","true","deep","","1","","",""
"1127","<p style='position: relative; text-align: center;font-size: 28px; line-height: 1.5'>EISEN</p>","a","categorize-html","116","116131","0.0-15.0-0.0-1.0","fj0sfnk5mm1ctwp","LOP","0","test_1","EISEN","true","true","deep","","1","false","",""
"1846","<p style='position: relative; text-align: center;font-size: 28px; line-height: 1.5'>EISEN</p><br>","50","html-slider-response","117","117980","0.0-15.0-0.0-2.0","fj0sfnk5mm1ctwp","LOP","1","test_1","EISEN","true","true","deep","","1","","500",""
"null","","null","html-keyboard-response","118","118482","0.0-15.0-0.1-0.1","fj0sfnk5mm1ctwp","LOP","1","test_1","BISCHOF","true","true","deep","","1","","",""
"159.00000000001455","<p style='position: relative; text-align: center;font-size: 28px; line-height: 1.5'>BISCHOF</p>","a","categorize-html","119","118644","0.0-15.0-0.1-1.1","fj0sfnk5mm1ctwp","LOP","1","test_1","BISCHOF","true","true","deep","","1","false","",""
"1027","<p style='position: relative; text-align: center;font-size: 28px; line-height: 1.5'>BISCHOF</p><br>","50","html-slider-response","120","119672","0.0-15.0-0.1-2.1","fj0sfnk5mm1ctwp","LOP","2","test_1","BISCHOF","true","true","deep","","1","","500",""
"null","","null","html-keyboard-response","121","120174","0.0-15.0-0.2-0.2","fj0sfnk5mm1ctwp","LOP","2","test_1","SCHIRM","true","true","shallow","","1","","",""
"279.99999999998545","<p style='position: relative; text-align: center;font-size: 28px; line-height: 1.5'>SCHIRM</p>","a","categorize-html","122","120458","0.0-15.0-0.2-1.2","fj0sfnk5mm1ctwp","LOP","2","test_1","SCHIRM","true","true","shallow","","1","false","",""
"1488","<p style='position: relative; text-align: center;font-size: 28px; line-height: 1.5'>SCHIRM</p><br>","50","html-slider-response","123","121948","0.0-15.0-0.2-2.2","fj0sfnk5mm1ctwp","LOP","3","test_1","SCHIRM","true","true","shallow","","1","","500",""
"null","","null","html-keyboard-response","124","122449","0.0-15.0-0.3-0.3","fj0sfnk5mm1ctwp","LOP","3","test_1","TRAINER","true","true","shallow","","1","","",""
"40","<p style='position: relative; text-align: center;font-size: 28px; line-height: 1.5'>TRAINER</p>","a","categorize-html","125","122492","0.0-15.0-0.3-1.3","fj0sfnk5mm1ctwp","LOP","3","test_1","TRAINER","true","true","shallow","","1","false","",""
"1463","<p style='position: relative; text-align: center;font-size: 28px; line-height: 1.5'>TRAINER</p><br>","50","html-slider-response","126","123956","0.0-15.0-0.3-2.3","fj0sfnk5mm1ctwp","LOP","4","test_1","TRAINER","true","true","shallow","","1","","500",""
"null","","null","html-keyboard-response","127","124457","0.0-15.0-0.4-0.4","fj0sfnk5mm1ctwp","LOP","4","test_1","WINTER","true","true","shallow","","1","","",""
"142","<p style='position: relative; text-align: center;font-size: 28px; line-height: 1.5'>WINTER</p>","a","categorize-html","128","124602","0.0-15.0-0.4-1.4","fj0sfnk5mm1ctwp","LOP","4","test_1","WINTER","true","true","shallow","","1","false","",""
"1856","<p style='position: relative; text-align: center;font-size: 28px; line-height: 1.5'>WINTER</p><br>","50","html-slider-response","129","126459","0.0-15.0-0.4-2.4","fj0sfnk5mm1ctwp","LOP","5","test_1","WINTER","true","true","shallow","","1","","500",""
"null","","null","html-keyboard-response","130","126961","0.0-15.0-0.5-0.5","fj0sfnk5mm1ctwp","LOP","5","test_1","SPATEN","true","false","","","1","","",""
"280","<p style='position: relative; text-align: center;font-size: 28px; line-height: 1.5'>SPATEN</p>","a","categorize-html","131","127243","0.0-15.0-0.5-1.5","fj0sfnk5mm1ctwp","LOP","5","test_1","SPATEN","true","false","","","1","false","",""
"1236.0000000000146","<p style='position: relative; text-align: center;font-size: 28px; line-height: 1.5'>SPATEN</p><br>","50","html-slider-response","132","128480","0.0-15.0-0.5-2.5","fj0sfnk5mm1ctwp","LOP","6","test_1","SPATEN","true","false","","","1","","500",""
"null","","null","html-keyboard-response","133","128982","0.0-15.0-0.6-0.6","fj0sfnk5mm1ctwp","LOP","6","test_1","MUSTER","true","true","deep","","1","","",""
"263","<p style='position: relative; text-align: center;font-size: 28px; line-height: 1.5'>MUSTER</p>","a","categorize-html","134","129247","0.0-15.0-0.6-1.6","fj0sfnk5mm1ctwp","LOP","6","test_1","MUSTER","true","true","deep","","1","false","",""
"1573.9999999999854","<p style='position: relative; text-align: center;font-size: 28px; line-height: 1.5'>MUSTER</p><br>","50","html-slider-response","135","130823","0.0-15.0-0.6-2.6","fj0sfnk5mm1ctwp","LOP","7","test_1","MUSTER","true","true","deep","","1","","500",""
"null","","null","html-keyboard-response","136","131324","0.0-15.0-0.7-0.7","fj0sfnk5mm1ctwp","LOP","7","test_1","INSTANZ","true","false","","","1","","",""
"519","<p style='position: relative; text-align: center;font-size: 28px; line-height: 1.5'>INSTANZ</p>","a","categorize-html","137","131845","0.0-15.0-0.7-1.7","fj0sfnk5mm1ctwp","LOP","7","test_1","INSTANZ","true","false","","","1","false","",""
"1382","<p style='position: relative; text-align: center;font-size: 28px; line-height: 1.5'>INSTANZ</p><br>","50","html-slider-response","138","133228","0.0-15.0-0.7-2.7","fj0sfnk5mm1ctwp","LOP","8","test_1","INSTANZ","true","false","","","1","","500",""
"null","","null","html-keyboard-response","139","133730","0.0-15.0-0.8-0.8","fj0sfnk5mm1ctwp","LOP","8","test_1","SAAL","true","false","","","1","","",""
"264","<p style='position: relative; text-align: center;font-size: 28px; line-height: 1.5'>SAAL</p>","a","categorize-html","140","133997","0.0-15.0-0.8-1.8","fj0sfnk5mm1ctwp","LOP","8","test_1","SAAL","true","false","","","1","false","",""
"1176.999999999971","<p style='position: relative; text-align: center;font-size: 28px; line-height: 1.5'>SAAL</p><br>","50","html-slider-response","141","135176","0.0-15.0-0.8-2.8","fj0sfnk5mm1ctwp","LOP","9","test_1","SAAL","true","false","","","1","","500",""
"null","","null","html-keyboard-response","142","135678","0.0-15.0-0.9-0.9","fj0sfnk5mm1ctwp","LOP","9","test_1","HEFT","true","false","","","1","","",""
"176","<p style='position: relative; text-align: center;font-size: 28px; line-height: 1.5'>HEFT</p>","a","categorize-html","143","135856","0.0-15.0-0.9-1.9","fj0sfnk5mm1ctwp","LOP","9","test_1","HEFT","true","false","","","1","false","",""
"1067","<p style='position: relative; text-align: center;font-size: 28px; line-height: 1.5'>HEFT</p><br>","50","html-slider-response","144","136925","0.0-15.0-0.9-2.9","fj0sfnk5mm1ctwp","LOP","10","test_1","HEFT","true","false","","","1","","500",""
"null","","null","html-keyboard-response","145","137426","0.0-15.0-0.10-0.10","fj0sfnk5mm1ctwp","LOP","10","test_1","ONKEL","true","true","shallow","","1","","",""
"19","<p style='position: relative; text-align: center;font-size: 28px; line-height: 1.5'>ONKEL</p>","a","categorize-html","146","137447","0.0-15.0-0.10-1.10","fj0sfnk5mm1ctwp","LOP","10","test_1","ONKEL","true","true","shallow","","1","false","",""
"1178","<p style='position: relative; text-align: center;font-size: 28px; line-height: 1.5'>ONKEL</p><br>","50","html-slider-response","147","138626","0.0-15.0-0.10-2.10","fj0sfnk5mm1ctwp","LOP","11","test_1","ONKEL","true","true","shallow","","1","","500",""
"null","","null","html-keyboard-response","148","139128","0.0-15.0-0.11-0.11","fj0sfnk5mm1ctwp","LOP","11","test_1","WAHRUNG","true","true","shallow","","1","","",""
"169.9999999999709","<p style='position: relative; text-align: center;font-size: 28px; line-height: 1.5'>WAHRUNG</p>","a","categorize-html","149","139302","0.0-15.0-0.11-1.11","fj0sfnk5mm1ctwp","LOP","11","test_1","WAHRUNG","true","true","shallow","","1","false","",""
"1111","<p style='position: relative; text-align: center;font-size: 28px; line-height: 1.5'>WAHRUNG</p><br>","50","html-slider-response","150","140415","0.0-15.0-0.11-2.11","fj0sfnk5mm1ctwp","LOP","12","test_1","WAHRUNG","true","true","shallow","","1","","500",""
"null","","null","html-keyboard-response","151","140917","0.0-15.0-0.12-0.12","fj0sfnk5mm1ctwp","LOP","12","test_1","RELIGION","true","false","","","1","","",""
"178","<p style='position: relative; text-align: center;font-size: 28px; line-height: 1.5'>RELIGION</p>","a","categorize-html","152","141098","0.0-15.0-0.12-1.12","fj0sfnk5mm1ctwp","LOP","12","test_1","RELIGION","true","false","","","1","false","",""
"1063.999999999971","<p style='position: relative; text-align: center;font-size: 28px; line-height: 1.5'>RELIGION</p><br>","50","html-slider-response","153","142164","0.0-15.0-0.12-2.12","fj0sfnk5mm1ctwp","LOP","13","test_1","RELIGION","true","false","","","1","","500",""
"null","","null","html-keyboard-response","154","142665","0.0-15.0-0.13-0.13","fj0sfnk5mm1ctwp","LOP","13","test_1","BLOCK","true","true","shallow","","1","","",""
"214","<p style='position: relative; text-align: center;font-size: 28px; line-height: 1.5'>BLOCK</p>","a","categorize-html","155","142881","0.0-15.0-0.13-1.13","fj0sfnk5mm1ctwp","LOP","13","test_1","BLOCK","true","true","shallow","","1","false","",""
"991.0000000000291","<p style='position: relative; text-align: center;font-size: 28px; line-height: 1.5'>BLOCK</p><br>","50","html-slider-response","156","143873","0.0-15.0-0.13-2.13","fj0sfnk5mm1ctwp","LOP","14","test_1","BLOCK","true","true","shallow","","1","","500",""
"null","","null","html-keyboard-response","157","144375","0.0-15.0-0.14-0.14","fj0sfnk5mm1ctwp","LOP","14","test_1","NAGEL","true","false","","","1","","",""
"213","<p style='position: relative; text-align: center;font-size: 28px; line-height: 1.5'>NAGEL</p>","a","categorize-html","158","144590","0.0-15.0-0.14-1.14","fj0sfnk5mm1ctwp","LOP","14","test_1","NAGEL","true","false","","","1","false","",""
"1480","<p style='position: relative; text-align: center;font-size: 28px; line-height: 1.5'>NAGEL</p><br>","50","html-slider-response","159","146072","0.0-15.0-0.14-2.14","fj0sfnk5mm1ctwp","LOP","15","test_1","NAGEL","true","false","","","1","","500",""
"null","","null","html-keyboard-response","160","146573","0.0-15.0-0.15-0.15","fj0sfnk5mm1ctwp","LOP","15","test_1","KLINGEL","true","true","deep","","1","","",""
"216","<p style='position: relative; text-align: center;font-size: 28px; line-height: 1.5'>KLINGEL</p>","a","categorize-html","161","146792","0.0-15.0-0.15-1.15","fj0sfnk5mm1ctwp","LOP","15","test_1","KLINGEL","true","true","deep","","1","false","",""
"1003","<p style='position: relative; text-align: center;font-size: 28px; line-height: 1.5'>KLINGEL</p><br>","50","html-slider-response","162","147796","0.0-15.0-0.15-2.15","fj0sfnk5mm1ctwp","LOP","16","test_1","KLINGEL","true","true","deep","","1","","500",""
"null","","null","html-keyboard-response","163","148298","0.0-15.0-0.16-0.16","fj0sfnk5mm1ctwp","LOP","16","test_1","KAMM","true","false","","","1","","",""
"203","<p style='position: relative; text-align: center;font-size: 28px; line-height: 1.5'>KAMM</p>","a","categorize-html","164","148503","0.0-15.0-0.16-1.16","fj0sfnk5mm1ctwp","LOP","16","test_1","KAMM","true","false","","","1","false","",""
"1110.999999999971","<p style='position: relative; text-align: center;font-size: 28px; line-height: 1.5'>KAMM</p><br>","50","html-slider-response","165","149616","0.0-15.0-0.16-2.16","fj0sfnk5mm1ctwp","LOP","17","test_1","KAMM","true","false","","","1","","500",""
"null","","null","html-keyboard-response","166","150118","0.0-15.0-0.17-0.17","fj0sfnk5mm1ctwp","LOP","17","test_1","BESEN","true","false","","","1","","",""
"189","<p style='position: relative; text-align: center;font-size: 28px; line-height: 1.5'>BESEN</p>","a","categorize-html","167","150310","0.0-15.0-0.17-1.17","fj0sfnk5mm1ctwp","LOP","17","test_1","BESEN","true","false","","","1","false","",""
"1174","<p style='position: relative; text-align: center;font-size: 28px; line-height: 1.5'>BESEN</p><br>","50","html-slider-response","168","151485","0.0-15.0-0.17-2.17","fj0sfnk5mm1ctwp","LOP","18","test_1","BESEN","true","false","","","1","","500",""
"null","","null","html-keyboard-response","169","151987","0.0-15.0-0.18-0.18","fj0sfnk5mm1ctwp","LOP","18","test_1","GERÜST","true","true","deep","","1","","",""
"202","<p style='position: relative; text-align: center;font-size: 28px; line-height: 1.5'>GERÜST</p>","a","categorize-html","170","152191","0.0-15.0-0.18-1.18","fj0sfnk5mm1ctwp","LOP","18","test_1","GERÜST","true","true","deep","","1","false","",""
"1451","<p style='position: relative; text-align: center;font-size: 28px; line-height: 1.5'>GERÜST</p><br>","50","html-slider-response","171","153644","0.0-15.0-0.18-2.18","fj0sfnk5mm1ctwp","LOP","19","test_1","GERÜST","true","true","deep","","1","","500",""
"null","","null","html-keyboard-response","172","154146","0.0-15.0-0.19-0.19","fj0sfnk5mm1ctwp","LOP","19","test_1","VERLAG","true","false","","","1","","",""
"355.9999999999709","<p style='position: relative; text-align: center;font-size: 28px; line-height: 1.5'>VERLAG</p>","a","categorize-html","173","154505","0.0-15.0-0.19-1.19","fj0sfnk5mm1ctwp","LOP","19","test_1","VERLAG","true","false","","","1","false","",""
"1512","<p style='position: relative; text-align: center;font-size: 28px; line-height: 1.5'>VERLAG</p><br>","50","html-slider-response","174","156018","0.0-15.0-0.19-2.19","fj0sfnk5mm1ctwp","LOP","20","test_1","VERLAG","true","false","","","1","","500",""
"null","","null","html-keyboard-response","175","156519","0.0-15.0-0.20-0.20","fj0sfnk5mm1ctwp","LOP","20","test_1","MÜTZE","true","false","","","1","","",""
"176","<p style='position: relative; text-align: center;font-size: 28px; line-height: 1.5'>MÜTZE</p>","a","categorize-html","176","156697","0.0-15.0-0.20-1.20","fj0sfnk5mm1ctwp","LOP","20","test_1","MÜTZE","true","false","","","1","false","",""
"1028","<p style='position: relative; text-align: center;font-size: 28px; line-height: 1.5'>MÜTZE</p><br>","50","html-slider-response","177","157727","0.0-15.0-0.20-2.20","fj0sfnk5mm1ctwp","LOP","21","test_1","MÜTZE","true","false","","","1","","500",""
"null","","null","html-keyboard-response","178","158228","0.0-15.0-0.21-0.21","fj0sfnk5mm1ctwp","LOP","21","test_1","WALL","true","false","","","1","","",""
"93","<p style='position: relative; text-align: center;font-size: 28px; line-height: 1.5'>WALL</p>","a","categorize-html","179","158324","0.0-15.0-0.21-1.21","fj0sfnk5mm1ctwp","LOP","21","test_1","WALL","true","false","","","1","false","",""
"1327","<p style='position: relative; text-align: center;font-size: 28px; line-height: 1.5'>WALL</p><br>","50","html-slider-response","180","159652","0.0-15.0-0.21-2.21","fj0sfnk5mm1ctwp","LOP","22","test_1","WALL","true","false","","","1","","500",""
"null","","null","html-keyboard-response","181","160154","0.0-15.0-0.22-0.22","fj0sfnk5mm1ctwp","LOP","22","test_1","LISTE","true","true","deep","","1","","",""
"165","<p style='position: relative; text-align: center;font-size: 28px; line-height: 1.5'>LISTE</p>","a","categorize-html","182","160321","0.0-15.0-0.22-1.22","fj0sfnk5mm1ctwp","LOP","22","test_1","LISTE","true","true","deep","","1","false","",""
"1070.000000000029","<p style='position: relative; text-align: center;font-size: 28px; line-height: 1.5'>LISTE</p><br>","50","html-slider-response","183","161392","0.0-15.0-0.22-2.22","fj0sfnk5mm1ctwp","LOP","23","test_1","LISTE","true","true","deep","","1","","500",""
"null","","null","html-keyboard-response","184","161894","0.0-15.0-0.23-0.23","fj0sfnk5mm1ctwp","LOP","23","test_1","ZIMMER","true","false","","","1","","",""
"95","<p style='position: relative; text-align: center;font-size: 28px; line-height: 1.5'>ZIMMER</p>","a","categorize-html","185","161991","0.0-15.0-0.23-1.23","fj0sfnk5mm1ctwp","LOP","23","test_1","ZIMMER","true","false","","","1","false","",""
"1164.999999999971","<p style='position: relative; text-align: center;font-size: 28px; line-height: 1.5'>ZIMMER</p><br>","50","html-slider-response","186","163158","0.0-15.0-0.23-2.23","fj0sfnk5mm1ctwp","LOP","24","test_1","ZIMMER","true","false","","","1","","500",""
"null","","null","html-keyboard-response","187","163659","0.0-15.0-0.24-0.24","fj0sfnk5mm1ctwp","LOP","24","test_1","MITTE","true","false","","","1","","",""
"78.9999999999709","<p style='position: relative; text-align: center;font-size: 28px; line-height: 1.5'>MITTE</p>","a","categorize-html","188","163740","0.0-15.0-0.24-1.24","fj0sfnk5mm1ctwp","LOP","24","test_1","MITTE","true","false","","","1","false","",""
"1148","<p style='position: relative; text-align: center;font-size: 28px; line-height: 1.5'>MITTE</p><br>","50","html-slider-response","189","164889","0.0-15.0-0.24-2.24","fj0sfnk5mm1ctwp","LOP","25","test_1","MITTE","true","false","","","1","","500",""
"null","","null","html-keyboard-response","190","165391","0.0-15.0-0.25-0.25","fj0sfnk5mm1ctwp","LOP","25","test_1","BUTTER","true","true","shallow","","1","","",""
"137","<p style='position: relative; text-align: center;font-size: 28px; line-height: 1.5'>BUTTER</p>","a","categorize-html","191","165531","0.0-15.0-0.25-1.25","fj0sfnk5mm1ctwp","LOP","25","test_1","BUTTER","true","true","shallow","","1","false","",""
"1260","<p style='position: relative; text-align: center;font-size: 28px; line-height: 1.5'>BUTTER</p><br>","50","html-slider-response","192","166791","0.0-15.0-0.25-2.25","fj0sfnk5mm1ctwp","LOP","26","test_1","BUTTER","true","true","shallow","","1","","500",""
"null","","null","html-keyboard-response","193","167293","0.0-15.0-0.26-0.26","fj0sfnk5mm1ctwp","LOP","26","test_1","PELZ","true","true","deep","","1","","",""
"217","<p style='position: relative; text-align: center;font-size: 28px; line-height: 1.5'>PELZ</p>","a","categorize-html","194","167513","0.0-15.0-0.26-1.26","fj0sfnk5mm1ctwp","LOP","26","test_1","PELZ","true","true","deep","","1","false","",""
"1114","<p style='position: relative; text-align: center;font-size: 28px; line-height: 1.5'>PELZ</p><br>","50","html-slider-response","195","168628","0.0-15.0-0.26-2.26","fj0sfnk5mm1ctwp","LOP","27","test_1","PELZ","true","true","deep","","1","","500",""
"null","","null","html-keyboard-response","196","169130","0.0-15.0-0.27-0.27","fj0sfnk5mm1ctwp","LOP","27","test_1","STIFT","true","true","deep","","1","","",""
"105.0000000000291","<p style='position: relative; text-align: center;font-size: 28px; line-height: 1.5'>STIFT</p>","a","categorize-html","197","169238","0.0-15.0-0.27-1.27","fj0sfnk5mm1ctwp","LOP","27","test_1","STIFT","true","true","deep","","1","false","",""
"1529","<p style='position: relative; text-align: center;font-size: 28px; line-height: 1.5'>STIFT</p><br>","50","html-slider-response","198","170769","0.0-15.0-0.27-2.27","fj0sfnk5mm1ctwp","LOP","28","test_1","STIFT","true","true","deep","","1","","500",""
"null","","null","html-keyboard-response","199","171271","0.0-15.0-0.28-0.28","fj0sfnk5mm1ctwp","LOP","28","test_1","KLÄRUNG","true","true","shallow","","1","","",""
"170.9999999999709","<p style='position: relative; text-align: center;font-size: 28px; line-height: 1.5'>KLÄRUNG</p>","a","categorize-html","200","171445","0.0-15.0-0.28-1.28","fj0sfnk5mm1ctwp","LOP","28","test_1","KLÄRUNG","true","true","shallow","","1","false","",""
"1224","<p style='position: relative; text-align: center;font-size: 28px; line-height: 1.5'>KLÄRUNG</p><br>","50","html-slider-response","201","172671","0.0-15.0-0.28-2.28","fj0sfnk5mm1ctwp","LOP","29","test_1","KLÄRUNG","true","true","shallow","","1","","500",""
"null","","null","html-keyboard-response","202","173172","0.0-15.0-0.29-0.29","fj0sfnk5mm1ctwp","LOP","29","test_1","LEUCHTE","true","false","","","1","","",""
"270","<p style='position: relative; text-align: center;font-size: 28px; line-height: 1.5'>LEUCHTE</p>","a","categorize-html","203","173445","0.0-15.0-0.29-1.29","fj0sfnk5mm1ctwp","LOP","29","test_1","LEUCHTE","true","false","","","1","false","",""
"2056","<p style='position: relative; text-align: center;font-size: 28px; line-height: 1.5'>LEUCHTE</p><br>","51","html-slider-response","204","175503","0.0-15.0-0.29-2.29","fj0sfnk5mm1ctwp","LOP","30","test_1","LEUCHTE","true","false","","","1","","500",""
"null","","null","html-keyboard-response","205","176005","0.0-15.0-0.30-0.30","fj0sfnk5mm1ctwp","LOP","30","test_1","MATROSE","true","true","deep","","1","","",""
"271","<p style='position: relative; text-align: center;font-size: 28px; line-height: 1.5'>MATROSE</p>","a","categorize-html","206","176278","0.0-15.0-0.30-1.30","fj0sfnk5mm1ctwp","LOP","30","test_1","MATROSE","true","true","deep","","1","false","",""
"1268.999999999971","<p style='position: relative; text-align: center;font-size: 28px; line-height: 1.5'>MATROSE</p><br>","50","html-slider-response","207","177547","0.0-15.0-0.30-2.30","fj0sfnk5mm1ctwp","LOP","31","test_1","MATROSE","true","true","deep","","1","","500",""
"null","","null","html-keyboard-response","208","178048","0.0-15.0-0.31-0.31","fj0sfnk5mm1ctwp","LOP","31","test_1","ZEILE","true","false","","","1","","",""
"208","<p style='position: relative; text-align: center;font-size: 28px; line-height: 1.5'>ZEILE</p>","a","categorize-html","209","178259","0.0-15.0-0.31-1.31","fj0sfnk5mm1ctwp","LOP","31","test_1","ZEILE","true","false","","","1","false","",""
"1020","<p style='position: relative; text-align: center;font-size: 28px; line-height: 1.5'>ZEILE</p><br>","50","html-slider-response","210","179280","0.0-15.0-0.31-2.31","fj0sfnk5mm1ctwp","LOP","32","test_1","ZEILE","true","false","","","1","","500",""
"null","","null","html-keyboard-response","211","179782","0.0-15.0-0.32-0.32","fj0sfnk5mm1ctwp","LOP","32","test_1","RUDEL","true","false","","","1","","",""
"219","<p style='position: relative; text-align: center;font-size: 28px; line-height: 1.5'>RUDEL</p>","a","categorize-html","212","180005","0.0-15.0-0.32-1.32","fj0sfnk5mm1ctwp","LOP","32","test_1","RUDEL","true","false","","","1","false","",""
"1327","<p style='position: relative; text-align: center;font-size: 28px; line-height: 1.5'>RUDEL</p><br>","50","html-slider-response","213","181335","0.0-15.0-0.32-2.32","fj0sfnk5mm1ctwp","LOP","33","test_1","RUDEL","true","false","","","1","","500",""
"null","","null","html-keyboard-response","214","181837","0.0-15.0-0.33-0.33","fj0sfnk5mm1ctwp","LOP","33","test_1","ZUSATZ","true","true","deep","","1","","",""
"216.9999999999709","<p style='position: relative; text-align: center;font-size: 28px; line-height: 1.5'>ZUSATZ</p>","a","categorize-html","215","182056","0.0-15.0-0.33-1.33","fj0sfnk5mm1ctwp","LOP","33","test_1","ZUSATZ","true","true","deep","","1","false","",""
"993","<p style='position: relative; text-align: center;font-size: 28px; line-height: 1.5'>ZUSATZ</p><br>","50","html-slider-response","216","183050","0.0-15.0-0.33-2.33","fj0sfnk5mm1ctwp","LOP","34","test_1","ZUSATZ","true","true","deep","","1","","500",""
"null","","null","html-keyboard-response","217","183552","0.0-15.0-0.34-0.34","fj0sfnk5mm1ctwp","LOP","34","test_1","DICHTER","true","true","deep","","1","","",""
"206","<p style='position: relative; text-align: center;font-size: 28px; line-height: 1.5'>DICHTER</p>","a","categorize-html","218","183761","0.0-15.0-0.34-1.34","fj0sfnk5mm1ctwp","LOP","34","test_1","DICHTER","true","true","deep","","1","false","",""
"1067","<p style='position: relative; text-align: center;font-size: 28px; line-height: 1.5'>DICHTER</p><br>","50","html-slider-response","219","184830","0.0-15.0-0.34-2.34","fj0sfnk5mm1ctwp","LOP","35","test_1","DICHTER","true","true","deep","","1","","500",""
"null","","null","html-keyboard-response","220","185331","0.0-15.0-0.35-0.35","fj0sfnk5mm1ctwp","LOP","35","test_1","DOSE","true","true","deep","","1","","",""
"234","<p style='position: relative; text-align: center;font-size: 28px; line-height: 1.5'>DOSE</p>","a","categorize-html","221","185568","0.0-15.0-0.35-1.35","fj0sfnk5mm1ctwp","LOP","35","test_1","DOSE","true","true","deep","","1","false","",""
"1100","<p style='position: relative; text-align: center;font-size: 28px; line-height: 1.5'>DOSE</p><br>","50","html-slider-response","222","186669","0.0-15.0-0.35-2.35","fj0sfnk5mm1ctwp","LOP","36","test_1","DOSE","true","true","deep","","1","","500",""
"null","","null","html-keyboard-response","223","187171","0.0-15.0-0.36-0.36","fj0sfnk5mm1ctwp","LOP","36","test_1","KUPFER","true","false","","","1","","",""
"229.9999999999709","<p style='position: relative; text-align: center;font-size: 28px; line-height: 1.5'>KUPFER</p>","a","categorize-html","224","187404","0.0-15.0-0.36-1.36","fj0sfnk5mm1ctwp","LOP","36","test_1","KUPFER","true","false","","","1","false","",""
"1470","<p style='position: relative; text-align: center;font-size: 28px; line-height: 1.5'>KUPFER</p><br>","50","html-slider-response","225","188875","0.0-15.0-0.36-2.36","fj0sfnk5mm1ctwp","LOP","37","test_1","KUPFER","true","false","","","1","","500",""
"null","","null","html-keyboard-response","226","189377","0.0-15.0-0.37-0.37","fj0sfnk5mm1ctwp","LOP","37","test_1","KUGEL","true","true","shallow","","1","","",""
"200","<p style='position: relative; text-align: center;font-size: 28px; line-height: 1.5'>KUGEL</p>","a","categorize-html","227","189579","0.0-15.0-0.37-1.37","fj0sfnk5mm1ctwp","LOP","37","test_1","KUGEL","true","true","shallow","","1","false","",""
"1285","<p style='position: relative; text-align: center;font-size: 28px; line-height: 1.5'>KUGEL</p><br>","50","html-slider-response","228","190865","0.0-15.0-0.37-2.37","fj0sfnk5mm1ctwp","LOP","38","test_1","KUGEL","true","true","shallow","","1","","500",""
"null","","null","html-keyboard-response","229","191366","0.0-15.0-0.38-0.38","fj0sfnk5mm1ctwp","LOP","38","test_1","DIENST","true","true","deep","","1","","",""
"185.9999999999709","<p style='position: relative; text-align: center;font-size: 28px; line-height: 1.5'>DIENST</p>","a","categorize-html","230","191556","0.0-15.0-0.38-1.38","fj0sfnk5mm1ctwp","LOP","38","test_1","DIENST","true","true","deep","","1","false","",""
"1113","<p style='position: relative; text-align: center;font-size: 28px; line-height: 1.5'>DIENST</p><br>","50","html-slider-response","231","192670","0.0-15.0-0.38-2.38","fj0sfnk5mm1ctwp","LOP","39","test_1","DIENST","true","true","deep","","1","","500",""
"null","","null","html-keyboard-response","232","193172","0.0-15.0-0.39-0.39","fj0sfnk5mm1ctwp","LOP","39","test_1","PARTEI","true","false","","","1","","",""
"188","<p style='position: relative; text-align: center;font-size: 28px; line-height: 1.5'>PARTEI</p>","a","categorize-html","233","193363","0.0-15.0-0.39-1.39","fj0sfnk5mm1ctwp","LOP","39","test_1","PARTEI","true","false","","","1","false","",""
"999","<p style='position: relative; text-align: center;font-size: 28px; line-height: 1.5'>PARTEI</p><br>","50","html-slider-response","234","194363","0.0-15.0-0.39-2.39","fj0sfnk5mm1ctwp","LOP","40","test_1","PARTEI","true","false","","","1","","500",""
"null","","null","html-keyboard-response","235","194864","0.0-15.0-0.40-0.40","fj0sfnk5mm1ctwp","LOP","40","test_1","URHEBER","true","false","","","1","","",""
"189","<p style='position: relative; text-align: center;font-size: 28px; line-height: 1.5'>URHEBER</p>","a","categorize-html","236","195055","0.0-15.0-0.40-1.40","fj0sfnk5mm1ctwp","LOP","40","test_1","URHEBER","true","false","","","1","false","",""
"1012","<p style='position: relative; text-align: center;font-size: 28px; line-height: 1.5'>URHEBER</p><br>","50","html-slider-response","237","196068","0.0-15.0-0.40-2.40","fj0sfnk5mm1ctwp","LOP","41","test_1","URHEBER","true","false","","","1","","500",""
"null","","null","html-keyboard-response","238","196570","0.0-15.0-0.41-0.41","fj0sfnk5mm1ctwp","LOP","41","test_1","REIGEN","true","false","","","1","","",""
"183","<p style='position: relative; text-align: center;font-size: 28px; line-height: 1.5'>REIGEN</p>","a","categorize-html","239","196756","0.0-15.0-0.41-1.41","fj0sfnk5mm1ctwp","LOP","41","test_1","REIGEN","true","false","","","1","false","",""
"974.0000000000291","<p style='position: relative; text-align: center;font-size: 28px; line-height: 1.5'>REIGEN</p><br>","50","html-slider-response","240","197731","0.0-15.0-0.41-2.41","fj0sfnk5mm1ctwp","LOP","42","test_1","REIGEN","true","false","","","1","","500",""
"null","","null","html-keyboard-response","241","198233","0.0-15.0-0.42-0.42","fj0sfnk5mm1ctwp","LOP","42","test_1","STREIFEN","true","false","","","1","","",""
"173","<p style='position: relative; text-align: center;font-size: 28px; line-height: 1.5'>STREIFEN</p>","a","categorize-html","242","198408","0.0-15.0-0.42-1.42","fj0sfnk5mm1ctwp","LOP","42","test_1","STREIFEN","true","false","","","1","false","",""
"935.0000000000291","<p style='position: relative; text-align: center;font-size: 28px; line-height: 1.5'>STREIFEN</p><br>","50","html-slider-response","243","199344","0.0-15.0-0.42-2.42","fj0sfnk5mm1ctwp","LOP","43","test_1","STREIFEN","true","false","","","1","","500",""
"null","","null","html-keyboard-response","244","199846","0.0-15.0-0.43-0.43","fj0sfnk5mm1ctwp","LOP","43","test_1","PEDAL","true","true","deep","","1","","",""
"114","<p style='position: relative; text-align: center;font-size: 28px; line-height: 1.5'>PEDAL</p>","a","categorize-html","245","199963","0.0-15.0-0.43-1.43","fj0sfnk5mm1ctwp","LOP","43","test_1","PEDAL","true","true","deep","","1","false","",""
"1050","<p style='position: relative; text-align: center;font-size: 28px; line-height: 1.5'>PEDAL</p><br>","50","html-slider-response","246","201014","0.0-15.0-0.43-2.43","fj0sfnk5mm1ctwp","LOP","44","test_1","PEDAL","true","true","deep","","1","","500",""
"null","","null","html-keyboard-response","247","201516","0.0-15.0-0.44-0.44","fj0sfnk5mm1ctwp","LOP","44","test_1","TRIKOT","true","true","deep","","1","","",""
"169.9999999999709","<p style='position: relative; text-align: center;font-size: 28px; line-height: 1.5'>TRIKOT</p>","a","categorize-html","248","201688","0.0-15.0-0.44-1.44","fj0sfnk5mm1ctwp","LOP","44","test_1","TRIKOT","true","true","deep","","1","false","",""
"945","<p style='position: relative; text-align: center;font-size: 28px; line-height: 1.5'>TRIKOT</p><br>","50","html-slider-response","249","202634","0.0-15.0-0.44-2.44","fj0sfnk5mm1ctwp","LOP","45","test_1","TRIKOT","true","true","deep","","1","","500",""
"null","","null","html-keyboard-response","250","203136","0.0-15.0-0.45-0.45","fj0sfnk5mm1ctwp","LOP","45","test_1","STÄTTE","true","true","deep","","1","","",""
"183","<p style='position: relative; text-align: center;font-size: 28px; line-height: 1.5'>STÄTTE</p>","a","categorize-html","251","203321","0.0-15.0-0.45-1.45","fj0sfnk5mm1ctwp","LOP","45","test_1","STÄTTE","true","true","deep","","1","false","",""
"1445.000000000029","<p style='position: relative; text-align: center;font-size: 28px; line-height: 1.5'>STÄTTE</p><br>","50","html-slider-response","252","204767","0.0-15.0-0.45-2.45","fj0sfnk5mm1ctwp","LOP","46","test_1","STÄTTE","true","true","deep","","1","","500",""
"null","","null","html-keyboard-response","253","205269","0.0-15.0-0.46-0.46","fj0sfnk5mm1ctwp","LOP","46","test_1","LUNGE","true","true","shallow","","1","","",""
"170","<p style='position: relative; text-align: center;font-size: 28px; line-height: 1.5'>LUNGE</p>","a","categorize-html","254","205441","0.0-15.0-0.46-1.46","fj0sfnk5mm1ctwp","LOP","46","test_1","LUNGE","true","true","shallow","","1","false","",""
"1138","<p style='position: relative; text-align: center;font-size: 28px; line-height: 1.5'>LUNGE</p><br>","50","html-slider-response","255","206580","0.0-15.0-0.46-2.46","fj0sfnk5mm1ctwp","LOP","47","test_1","LUNGE","true","true","shallow","","1","","500",""
"null","","null","html-keyboard-response","256","207082","0.0-15.0-0.47-0.47","fj0sfnk5mm1ctwp","LOP","47","test_1","MAPPE","true","false","","","1","","",""
"191","<p style='position: relative; text-align: center;font-size: 28px; line-height: 1.5'>MAPPE</p>","a","categorize-html","257","207275","0.0-15.0-0.47-1.47","fj0sfnk5mm1ctwp","LOP","47","test_1","MAPPE","true","false","","","1","false","",""
"1069","<p style='position: relative; text-align: center;font-size: 28px; line-height: 1.5'>MAPPE</p><br>","50","html-slider-response","258","208346","0.0-15.0-0.47-2.47","fj0sfnk5mm1ctwp","LOP","48","test_1","MAPPE","true","false","","","1","","500",""
"null","","null","html-keyboard-response","259","208847","0.0-15.0-0.48-0.48","fj0sfnk5mm1ctwp","LOP","48","test_1","REGELUNG","true","false","","","1","","",""
"195","<p style='position: relative; text-align: center;font-size: 28px; line-height: 1.5'>REGELUNG</p>","a","categorize-html","260","209045","0.0-15.0-0.48-1.48","fj0sfnk5mm1ctwp","LOP","48","test_1","REGELUNG","true","false","","","1","false","",""
"1634","<p style='position: relative; text-align: center;font-size: 28px; line-height: 1.5'>REGELUNG</p><br>","50","html-slider-response","261","210680","0.0-15.0-0.48-2.48","fj0sfnk5mm1ctwp","LOP","49","test_1","REGELUNG","true","false","","","1","","500",""
"null","","null","html-keyboard-response","262","211182","0.0-15.0-0.49-0.49","fj0sfnk5mm1ctwp","LOP","49","test_1","KRAUT","true","false","","","1","","",""
"222","<p style='position: relative; text-align: center;font-size: 28px; line-height: 1.5'>KRAUT</p>","a","categorize-html","263","211406","0.0-15.0-0.49-1.49","fj0sfnk5mm1ctwp","LOP","49","test_1","KRAUT","true","false","","","1","false","",""
"1117","<p style='position: relative; text-align: center;font-size: 28px; line-height: 1.5'>KRAUT</p><br>","50","html-slider-response","264","212524","0.0-15.0-0.49-2.49","fj0sfnk5mm1ctwp","LOP","50","test_1","KRAUT","true","false","","","1","","500",""
"979","<p id=""Header"">Pause</p><p style=""margin-top: 20% max-width: 85%;"">Block 1/4 der Testphase ist geschafft! Sie können an dieser Stelle eine kurze Pause machen.</p><p>Klicken Sie auf ""Weiter"", um den nächsten Block zu starten.</p>","0","html-button-response","265","213504","0.0-16.0","fj0sfnk5mm1ctwp","LOP","50","instr","","","","","","","","",""
"null","","null","html-keyboard-response","266","214005","0.0-17.0-0.0-0.0","fj0sfnk5mm1ctwp","LOP","50","test_1","WORT","true","false","","","2","","",""
"220","<p style='position: relative; text-align: center;font-size: 28px; line-height: 1.5'>WORT</p>","a","categorize-html","267","214228","0.0-17.0-0.0-1.0","fj0sfnk5mm1ctwp","LOP","50","test_1","WORT","true","false","","","2","false","",""
"1136","<p style='position: relative; text-align: center;font-size: 28px; line-height: 1.5'>WORT</p><br>","50","html-slider-response","268","215365","0.0-17.0-0.0-2.0","fj0sfnk5mm1ctwp","LOP","51","test_1","WORT","true","false","","","2","","500",""
"null","","null","html-keyboard-response","269","215867","0.0-17.0-0.1-0.1","fj0sfnk5mm1ctwp","LOP","51","test_1","WAND","true","false","","","2","","",""
"205.9999999999709","<p style='position: relative; text-align: center;font-size: 28px; line-height: 1.5'>WAND</p>","a","categorize-html","270","216075","0.0-17.0-0.1-1.1","fj0sfnk5mm1ctwp","LOP","51","test_1","WAND","true","false","","","2","false","",""
"1358.000000000029","<p style='position: relative; text-align: center;font-size: 28px; line-height: 1.5'>WAND</p><br>","50","html-slider-response","271","217435","0.0-17.0-0.1-2.1","fj0sfnk5mm1ctwp","LOP","52","test_1","WAND","true","false","","","2","","500",""
"null","","null","html-keyboard-response","272","217936","0.0-17.0-0.2-0.2","fj0sfnk5mm1ctwp","LOP","52","test_1","SCHATTEN","true","false","","","2","","",""
"147","<p style='position: relative; text-align: center;font-size: 28px; line-height: 1.5'>SCHATTEN</p>","a","categorize-html","273","218086","0.0-17.0-0.2-1.2","fj0sfnk5mm1ctwp","LOP","52","test_1","SCHATTEN","true","false","","","2","false","",""
"1001","<p style='position: relative; text-align: center;font-size: 28px; line-height: 1.5'>SCHATTEN</p><br>","50","html-slider-response","274","219087","0.0-17.0-0.2-2.2","fj0sfnk5mm1ctwp","LOP","53","test_1","SCHATTEN","true","false","","","2","","500",""
"null","","null","html-keyboard-response","275","219589","0.0-17.0-0.3-0.3","fj0sfnk5mm1ctwp","LOP","53","test_1","TINTE","true","true","deep","","2","","",""
"229","<p style='position: relative; text-align: center;font-size: 28px; line-height: 1.5'>TINTE</p>","a","categorize-html","276","219821","0.0-17.0-0.3-1.3","fj0sfnk5mm1ctwp","LOP","53","test_1","TINTE","true","true","deep","","2","false","",""
"1583","<p style='position: relative; text-align: center;font-size: 28px; line-height: 1.5'>TINTE</p><br>","50","html-slider-response","277","221406","0.0-17.0-0.3-2.3","fj0sfnk5mm1ctwp","LOP","54","test_1","TINTE","true","true","deep","","2","","500",""
"null","","null","html-keyboard-response","278","221907","0.0-17.0-0.4-0.4","fj0sfnk5mm1ctwp","LOP","54","test_1","KORN","true","false","","","2","","",""
"229","<p style='position: relative; text-align: center;font-size: 28px; line-height: 1.5'>KORN</p>","a","categorize-html","279","222138","0.0-17.0-0.4-1.4","fj0sfnk5mm1ctwp","LOP","54","test_1","KORN","true","false","","","2","false","",""
"974","<p style='position: relative; text-align: center;font-size: 28px; line-height: 1.5'>KORN</p><br>","50","html-slider-response","280","223114","0.0-17.0-0.4-2.4","fj0sfnk5mm1ctwp","LOP","55","test_1","KORN","true","false","","","2","","500",""
"null","","null","html-keyboard-response","281","223616","0.0-17.0-0.5-0.5","fj0sfnk5mm1ctwp","LOP","55","test_1","SCHRAUBE","true","false","","","2","","",""
"116","<p style='position: relative; text-align: center;font-size: 28px; line-height: 1.5'>SCHRAUBE</p>","a","categorize-html","282","223734","0.0-17.0-0.5-1.5","fj0sfnk5mm1ctwp","LOP","55","test_1","SCHRAUBE","true","false","","","2","false","",""
"1384","<p style='position: relative; text-align: center;font-size: 28px; line-height: 1.5'>SCHRAUBE</p><br>","50","html-slider-response","283","225119","0.0-17.0-0.5-2.5","fj0sfnk5mm1ctwp","LOP","56","test_1","SCHRAUBE","true","false","","","2","","500",""
"null","","null","html-keyboard-response","284","225621","0.0-17.0-0.6-0.6","fj0sfnk5mm1ctwp","LOP","56","test_1","ABLAUF","true","false","","","2","","",""
"118","<p style='position: relative; text-align: center;font-size: 28px; line-height: 1.5'>ABLAUF</p>","a","categorize-html","285","225741","0.0-17.0-0.6-1.6","fj0sfnk5mm1ctwp","LOP","56","test_1","ABLAUF","true","false","","","2","false","",""
"1029","<p style='position: relative; text-align: center;font-size: 28px; line-height: 1.5'>ABLAUF</p><br>","50","html-slider-response","286","226772","0.0-17.0-0.6-2.6","fj0sfnk5mm1ctwp","LOP","57","test_1","ABLAUF","true","false","","","2","","500",""
"null","","null","html-keyboard-response","287","227274","0.0-17.0-0.7-0.7","fj0sfnk5mm1ctwp","LOP","57","test_1","SALZ","true","false","","","2","","",""
"213","<p style='position: relative; text-align: center;font-size: 28px; line-height: 1.5'>SALZ</p>","a","categorize-html","288","227489","0.0-17.0-0.7-1.7","fj0sfnk5mm1ctwp","LOP","57","test_1","SALZ","true","false","","","2","false","",""
"1352","<p style='position: relative; text-align: center;font-size: 28px; line-height: 1.5'>SALZ</p><br>","50","html-slider-response","289","228843","0.0-17.0-0.7-2.7","fj0sfnk5mm1ctwp","LOP","58","test_1","SALZ","true","false","","","2","","500",""
"null","","null","html-keyboard-response","290","229345","0.0-17.0-0.8-0.8","fj0sfnk5mm1ctwp","LOP","58","test_1","KAPSEL","true","true","shallow","","2","","",""
"275","<p style='position: relative; text-align: center;font-size: 28px; line-height: 1.5'>KAPSEL</p>","a","categorize-html","291","229622","0.0-17.0-0.8-1.8","fj0sfnk5mm1ctwp","LOP","58","test_1","KAPSEL","true","true","shallow","","2","false","",""
"1200","<p style='position: relative; text-align: center;font-size: 28px; line-height: 1.5'>KAPSEL</p><br>","50","html-slider-response","292","230823","0.0-17.0-0.8-2.8","fj0sfnk5mm1ctwp","LOP","59","test_1","KAPSEL","true","true","shallow","","2","","500",""
"null","","null","html-keyboard-response","293","231325","0.0-17.0-0.9-0.9","fj0sfnk5mm1ctwp","LOP","59","test_1","TOPF","true","true","deep","","2","","",""
"217","<p style='position: relative; text-align: center;font-size: 28px; line-height: 1.5'>TOPF</p>","a","categorize-html","294","231545","0.0-17.0-0.9-1.9","fj0sfnk5mm1ctwp","LOP","59","test_1","TOPF","true","true","deep","","2","false","",""
"1268","<p style='position: relative; text-align: center;font-size: 28px; line-height: 1.5'>TOPF</p><br>","50","html-slider-response","295","232813","0.0-17.0-0.9-2.9","fj0sfnk5mm1ctwp","LOP","60","test_1","TOPF","true","true","deep","","2","","500",""
"null","","null","html-keyboard-response","296","233315","0.0-17.0-0.10-0.10","fj0sfnk5mm1ctwp","LOP","60","test_1","VORSTAND","true","true","shallow","","2","","",""
"166","<p style='position: relative; text-align: center;font-size: 28px; line-height: 1.5'>VORSTAND</p>","a","categorize-html","297","233483","0.0-17.0-0.10-1.10","fj0sfnk5mm1ctwp","LOP","60","test_1","VORSTAND","true","true","shallow","","2","false","",""
"1054","<p style='position: relative; text-align: center;font-size: 28px; line-height: 1.5'>VORSTAND</p><br>","50","html-slider-response","298","234538","0.0-17.0-0.10-2.10","fj0sfnk5mm1ctwp","LOP","61","test_1","VORSTAND","true","true","shallow","","2","","500",""
"null","","null","html-keyboard-response","299","235040","0.0-17.0-0.11-0.11","fj0sfnk5mm1ctwp","LOP","61","test_1","SEIFE","true","false","","","2","","",""
"246.9999999999709","<p style='position: relative; text-align: center;font-size: 28px; line-height: 1.5'>SEIFE</p>","a","categorize-html","300","235290","0.0-17.0-0.11-1.11","fj0sfnk5mm1ctwp","LOP","61","test_1","SEIFE","true","false","","","2","false","",""
"1548.999999999971","<p style='position: relative; text-align: center;font-size: 28px; line-height: 1.5'>SEIFE</p><br>","50","html-slider-response","301","236841","0.0-17.0-0.11-2.11","fj0sfnk5mm1ctwp","LOP","62","test_1","SEIFE","true","false","","","2","","500",""
"null","","null","html-keyboard-response","302","237342","0.0-17.0-0.12-0.12","fj0sfnk5mm1ctwp","LOP","62","test_1","HEMD","true","true","deep","","2","","",""
"213","<p style='position: relative; text-align: center;font-size: 28px; line-height: 1.5'>HEMD</p>","a","categorize-html","303","237557","0.0-17.0-0.12-1.12","fj0sfnk5mm1ctwp","LOP","62","test_1","HEMD","true","true","deep","","2","false","",""
"1128","<p style='position: relative; text-align: center;font-size: 28px; line-height: 1.5'>HEMD</p><br>","50","html-slider-response","304","238686","0.0-17.0-0.12-2.12","fj0sfnk5mm1ctwp","LOP","63","test_1","HEMD","true","true","deep","","2","","500",""
"null","","null","html-keyboard-response","305","239188","0.0-17.0-0.13-0.13","fj0sfnk5mm1ctwp","LOP","63","test_1","MATERIAL","true","false","","","2","","",""
"244","<p style='position: relative; text-align: center;font-size: 28px; line-height: 1.5'>MATERIAL</p>","a","categorize-html","306","239437","0.0-17.0-0.13-1.13","fj0sfnk5mm1ctwp","LOP","63","test_1","MATERIAL","true","false","","","2","false","",""
"988","<p style='position: relative; text-align: center;font-size: 28px; line-height: 1.5'>MATERIAL</p><br>","50","html-slider-response","307","240427","0.0-17.0-0.13-2.13","fj0sfnk5mm1ctwp","LOP","64","test_1","MATERIAL","true","false","","","2","","500",""
"null","","null","html-keyboard-response","308","240929","0.0-17.0-0.14-0.14","fj0sfnk5mm1ctwp","LOP","64","test_1","ZWIEBEL","true","false","","","2","","",""
"157","<p style='position: relative; text-align: center;font-size: 28px; line-height: 1.5'>ZWIEBEL</p>","a","categorize-html","309","241089","0.0-17.0-0.14-1.14","fj0sfnk5mm1ctwp","LOP","64","test_1","ZWIEBEL","true","false","","","2","false","",""
"1117","<p style='position: relative; text-align: center;font-size: 28px; line-height: 1.5'>ZWIEBEL</p><br>","50","html-slider-response","310","242207","0.0-17.0-0.14-2.14","fj0sfnk5mm1ctwp","LOP","65","test_1","ZWIEBEL","true","false","","","2","","500",""
"null","","null","html-keyboard-response","311","242710","0.0-17.0-0.15-0.15","fj0sfnk5mm1ctwp","LOP","65","test_1","DEUTUNG","true","false","","","2","","",""
"167","<p style='position: relative; text-align: center;font-size: 28px; line-height: 1.5'>DEUTUNG</p>","a","categorize-html","312","242879","0.0-17.0-0.15-1.15","fj0sfnk5mm1ctwp","LOP","65","test_1","DEUTUNG","true","false","","","2","false","",""
"996","<p style='position: relative; text-align: center;font-size: 28px; line-height: 1.5'>DEUTUNG</p><br>","50","html-slider-response","313","243876","0.0-17.0-0.15-2.15","fj0sfnk5mm1ctwp","LOP","66","test_1","DEUTUNG","true","false","","","2","","500",""
"null","","null","html-keyboard-response","314","244378","0.0-17.0-0.16-0.16","fj0sfnk5mm1ctwp","LOP","66","test_1","PFÜTZE","true","false","","","2","","",""
"297","<p style='position: relative; text-align: center;font-size: 28px; line-height: 1.5'>PFÜTZE</p>","a","categorize-html","315","244677","0.0-17.0-0.16-1.16","fj0sfnk5mm1ctwp","LOP","66","test_1","PFÜTZE","true","false","","","2","false","",""
"1003.9999999999709","<p style='position: relative; text-align: center;font-size: 28px; line-height: 1.5'>PFÜTZE</p><br>","50","html-slider-response","316","245682","0.0-17.0-0.16-2.16","fj0sfnk5mm1ctwp","LOP","67","test_1","PFÜTZE","true","false","","","2","","500",""
"null","","null","html-keyboard-response","317","246184","0.0-17.0-0.17-0.17","fj0sfnk5mm1ctwp","LOP","67","test_1","ZELT","true","false","","","2","","",""
"169","<p style='position: relative; text-align: center;font-size: 28px; line-height: 1.5'>ZELT</p>","a","categorize-html","318","246356","0.0-17.0-0.17-1.17","fj0sfnk5mm1ctwp","LOP","67","test_1","ZELT","true","false","","","2","false","",""
"1113","<p style='position: relative; text-align: center;font-size: 28px; line-height: 1.5'>ZELT</p><br>","50","html-slider-response","319","247471","0.0-17.0-0.17-2.17","fj0sfnk5mm1ctwp","LOP","68","test_1","ZELT","true","false","","","2","","500",""
"null","","null","html-keyboard-response","320","247972","0.0-17.0-0.18-0.18","fj0sfnk5mm1ctwp","LOP","68","test_1","KONZERN","true","true","deep","","2","","",""
"199.0000000000291","<p style='position: relative; text-align: center;font-size: 28px; line-height: 1.5'>KONZERN</p>","a","categorize-html","321","248173","0.0-17.0-0.18-1.18","fj0sfnk5mm1ctwp","LOP","68","test_1","KONZERN","true","true","deep","","2","false","",""
"1037","<p style='position: relative; text-align: center;font-size: 28px; line-height: 1.5'>KONZERN</p><br>","50","html-slider-response","322","249212","0.0-17.0-0.18-2.18","fj0sfnk5mm1ctwp","LOP","69","test_1","KONZERN","true","true","deep","","2","","500",""
"null","","null","html-keyboard-response","323","249713","0.0-17.0-0.19-0.19","fj0sfnk5mm1ctwp","LOP","69","test_1","SIEDLUNG","true","true","shallow","","2","","",""
"218.9999999999709","<p style='position: relative; text-align: center;font-size: 28px; line-height: 1.5'>SIEDLUNG</p>","a","categorize-html","324","249934","0.0-17.0-0.19-1.19","fj0sfnk5mm1ctwp","LOP","69","test_1","SIEDLUNG","true","true","shallow","","2","false","",""
"1041","<p style='position: relative; text-align: center;font-size: 28px; line-height: 1.5'>SIEDLUNG</p><br>","50","html-slider-response","325","250975","0.0-17.0-0.19-2.19","fj0sfnk5mm1ctwp","LOP","70","test_1","SIEDLUNG","true","true","shallow","","2","","500",""
"null","","null","html-keyboard-response","326","251477","0.0-17.0-0.20-0.20","fj0sfnk5mm1ctwp","LOP","70","test_1","SUCHE","true","true","shallow","","2","","",""
"182.0000000000291","<p style='position: relative; text-align: center;font-size: 28px; line-height: 1.5'>SUCHE</p>","a","categorize-html","327","251663","0.0-17.0-0.20-1.20","fj0sfnk5mm1ctwp","LOP","70","test_1","SUCHE","true","true","shallow","","2","false","",""
"1637","<p style='position: relative; text-align: center;font-size: 28px; line-height: 1.5'>SUCHE</p><br>","50","html-slider-response","328","253303","0.0-17.0-0.20-2.20","fj0sfnk5mm1ctwp","LOP","71","test_1","SUCHE","true","true","shallow","","2","","500",""
"null","","null","html-keyboard-response","329","253805","0.0-17.0-0.21-0.21","fj0sfnk5mm1ctwp","LOP","71","test_1","WEISUNG","true","true","shallow","","2","","",""
"236","<p style='position: relative; text-align: center;font-size: 28px; line-height: 1.5'>WEISUNG</p>","a","categorize-html","330","254044","0.0-17.0-0.21-1.21","fj0sfnk5mm1ctwp","LOP","71","test_1","WEISUNG","true","true","shallow","","2","false","",""
"1110.000000000029","<p style='position: relative; text-align: center;font-size: 28px; line-height: 1.5'>WEISUNG</p><br>","50","html-slider-response","331","255155","0.0-17.0-0.21-2.21","fj0sfnk5mm1ctwp","LOP","72","test_1","WEISUNG","true","true","shallow","","2","","500",""
"null","","null","html-keyboard-response","332","255657","0.0-17.0-0.22-0.22","fj0sfnk5mm1ctwp","LOP","72","test_1","BLATT","true","true","shallow","","2","","",""
"250","<p style='position: relative; text-align: center;font-size: 28px; line-height: 1.5'>BLATT</p>","a","categorize-html","333","255909","0.0-17.0-0.22-1.22","fj0sfnk5mm1ctwp","LOP","72","test_1","BLATT","true","true","shallow","","2","false","",""
"1051","<p style='position: relative; text-align: center;font-size: 28px; line-height: 1.5'>BLATT</p><br>","50","html-slider-response","334","256961","0.0-17.0-0.22-2.22","fj0sfnk5mm1ctwp","LOP","73","test_1","BLATT","true","true","shallow","","2","","500",""
"null","","null","html-keyboard-response","335","257463","0.0-17.0-0.23-0.23","fj0sfnk5mm1ctwp","LOP","73","test_1","MAST","true","false","","","2","","",""
"68.0000000000291","<p style='position: relative; text-align: center;font-size: 28px; line-height: 1.5'>MAST</p>","a","categorize-html","336","257532","0.0-17.0-0.23-1.23","fj0sfnk5mm1ctwp","LOP","73","test_1","MAST","true","false","","","2","false","",""
"1016.0000000000291","<p style='position: relative; text-align: center;font-size: 28px; line-height: 1.5'>MAST</p><br>","50","html-slider-response","337","258549","0.0-17.0-0.23-2.23","fj0sfnk5mm1ctwp","LOP","74","test_1","MAST","true","false","","","2","","500",""
"null","","null","html-keyboard-response","338","259051","0.0-17.0-0.24-0.24","fj0sfnk5mm1ctwp","LOP","74","test_1","NUTZEN","true","true","deep","","2","","",""
"273.0000000000291","<p style='position: relative; text-align: center;font-size: 28px; line-height: 1.5'>NUTZEN</p>","a","categorize-html","339","259326","0.0-17.0-0.24-1.24","fj0sfnk5mm1ctwp","LOP","74","test_1","NUTZEN","true","true","deep","","2","false","",""
"1043","<p style='position: relative; text-align: center;font-size: 28px; line-height: 1.5'>NUTZEN</p><br>","50","html-slider-response","340","260370","0.0-17.0-0.24-2.24","fj0sfnk5mm1ctwp","LOP","75","test_1","NUTZEN","true","true","deep","","2","","500",""
"null","","null","html-keyboard-response","341","260872","0.0-17.0-0.25-0.25","fj0sfnk5mm1ctwp","LOP","75","test_1","UMSTAND","true","true","shallow","","2","","",""
"2109","<p style='position: relative; text-align: center;font-size: 28px; line-height: 1.5'>UMSTAND</p>","a","categorize-html","342","262984","0.0-17.0-0.25-1.25","fj0sfnk5mm1ctwp","LOP","75","test_1","UMSTAND","true","true","shallow","","2","false","",""
"1162","<p style='position: relative; text-align: center;font-size: 28px; line-height: 1.5'>UMSTAND</p><br>","50","html-slider-response","343","264147","0.0-17.0-0.25-2.25","fj0sfnk5mm1ctwp","LOP","76","test_1","UMSTAND","true","true","shallow","","2","","500",""
"null","","null","html-keyboard-response","344","264649","0.0-17.0-0.26-0.26","fj0sfnk5mm1ctwp","LOP","76","test_1","SCHWAMM","true","false","","","2","","",""
"245","<p style='position: relative; text-align: center;font-size: 28px; line-height: 1.5'>SCHWAMM</p>","a","categorize-html","345","264897","0.0-17.0-0.26-1.26","fj0sfnk5mm1ctwp","LOP","76","test_1","SCHWAMM","true","false","","","2","false","",""
"1381","<p style='position: relative; text-align: center;font-size: 28px; line-height: 1.5'>SCHWAMM</p><br>","50","html-slider-response","346","266279","0.0-17.0-0.26-2.26","fj0sfnk5mm1ctwp","LOP","77","test_1","SCHWAMM","true","false","","","2","","500",""
"null","","null","html-keyboard-response","347","266780","0.0-17.0-0.27-0.27","fj0sfnk5mm1ctwp","LOP","77","test_1","ZWEIG","true","false","","","2","","",""
"247","<p style='position: relative; text-align: center;font-size: 28px; line-height: 1.5'>ZWEIG</p>","a","categorize-html","348","267030","0.0-17.0-0.27-1.27","fj0sfnk5mm1ctwp","LOP","77","test_1","ZWEIG","true","false","","","2","false","",""
"1647","<p style='position: relative; text-align: center;font-size: 28px; line-height: 1.5'>ZWEIG</p><br>","50","html-slider-response","349","268678","0.0-17.0-0.27-2.27","fj0sfnk5mm1ctwp","LOP","78","test_1","ZWEIG","true","false","","","2","","500",""
"null","","null","html-keyboard-response","350","269180","0.0-17.0-0.28-0.28","fj0sfnk5mm1ctwp","LOP","78","test_1","VERS","true","true","deep","","2","","",""
"278","<p style='position: relative; text-align: center;font-size: 28px; line-height: 1.5'>VERS</p>","a","categorize-html","351","269460","0.0-17.0-0.28-1.28","fj0sfnk5mm1ctwp","LOP","78","test_1","VERS","true","true","deep","","2","false","",""
"941.9999999999418","<p style='position: relative; text-align: center;font-size: 28px; line-height: 1.5'>VERS</p><br>","50","html-slider-response","352","270404","0.0-17.0-0.28-2.28","fj0sfnk5mm1ctwp","LOP","79","test_1","VERS","true","true","deep","","2","","500",""
"null","","null","html-keyboard-response","353","270906","0.0-17.0-0.29-0.29","fj0sfnk5mm1ctwp","LOP","79","test_1","TAFEL","true","false","","","2","","",""
"291","<p style='position: relative; text-align: center;font-size: 28px; line-height: 1.5'>TAFEL</p>","a","categorize-html","354","271199","0.0-17.0-0.29-1.29","fj0sfnk5mm1ctwp","LOP","79","test_1","TAFEL","true","false","","","2","false","",""
"1377.9999999999418","<p style='position: relative; text-align: center;font-size: 28px; line-height: 1.5'>TAFEL</p><br>","50","html-slider-response","355","272578","0.0-17.0-0.29-2.29","fj0sfnk5mm1ctwp","LOP","80","test_1","TAFEL","true","false","","","2","","500",""
"null","","null","html-keyboard-response","356","273080","0.0-17.0-0.30-0.30","fj0sfnk5mm1ctwp","LOP","80","test_1","BRILLE","true","true","shallow","","2","","",""
"191","<p style='position: relative; text-align: center;font-size: 28px; line-height: 1.5'>BRILLE</p>","a","categorize-html","357","273273","0.0-17.0-0.30-1.30","fj0sfnk5mm1ctwp","LOP","80","test_1","BRILLE","true","true","shallow","","2","false","",""
"1139.0000000000582","<p style='position: relative; text-align: center;font-size: 28px; line-height: 1.5'>BRILLE</p><br>","50","html-slider-response","358","274414","0.0-17.0-0.30-2.30","fj0sfnk5mm1ctwp","LOP","81","test_1","BRILLE","true","true","shallow","","2","","500",""
"null","","null","html-keyboard-response","359","274916","0.0-17.0-0.31-0.31","fj0sfnk5mm1ctwp","LOP","81","test_1","AUSKUNFT","true","false","","","2","","",""
"251","<p style='position: relative; text-align: center;font-size: 28px; line-height: 1.5'>AUSKUNFT</p>","a","categorize-html","360","275170","0.0-17.0-0.31-1.31","fj0sfnk5mm1ctwp","LOP","81","test_1","AUSKUNFT","true","false","","","2","false","",""
"928","<p style='position: relative; text-align: center;font-size: 28px; line-height: 1.5'>AUSKUNFT</p><br>","50","html-slider-response","361","276099","0.0-17.0-0.31-2.31","fj0sfnk5mm1ctwp","LOP","82","test_1","AUSKUNFT","true","false","","","2","","500",""
"null","","null","html-keyboard-response","362","276601","0.0-17.0-0.32-0.32","fj0sfnk5mm1ctwp","LOP","82","test_1","BAUCH","true","false","","","2","","",""
"257","<p style='position: relative; text-align: center;font-size: 28px; line-height: 1.5'>BAUCH</p>","a","categorize-html","363","276860","0.0-17.0-0.32-1.32","fj0sfnk5mm1ctwp","LOP","82","test_1","BAUCH","true","false","","","2","false","",""
"865","<p style='position: relative; text-align: center;font-size: 28px; line-height: 1.5'>BAUCH</p><br>","50","html-slider-response","364","277727","0.0-17.0-0.32-2.32","fj0sfnk5mm1ctwp","LOP","83","test_1","BAUCH","true","false","","","2","","500",""
"null","","null","html-keyboard-response","365","278229","0.0-17.0-0.33-0.33","fj0sfnk5mm1ctwp","LOP","83","test_1","HÜTER","true","false","","","2","","",""
"256","<p style='position: relative; text-align: center;font-size: 28px; line-height: 1.5'>HÜTER</p>","a","categorize-html","366","278488","0.0-17.0-0.33-1.33","fj0sfnk5mm1ctwp","LOP","83","test_1","HÜTER","true","false","","","2","false","",""
"995","<p style='position: relative; text-align: center;font-size: 28px; line-height: 1.5'>HÜTER</p><br>","50","html-slider-response","367","279484","0.0-17.0-0.33-2.33","fj0sfnk5mm1ctwp","LOP","84","test_1","HÜTER","true","false","","","2","","500",""
"null","","null","html-keyboard-response","368","279986","0.0-17.0-0.34-0.34","fj0sfnk5mm1ctwp","LOP","84","test_1","SCHNITT","true","true","shallow","","2","","",""
"230","<p style='position: relative; text-align: center;font-size: 28px; line-height: 1.5'>SCHNITT</p>","a","categorize-html","369","280218","0.0-17.0-0.34-1.34","fj0sfnk5mm1ctwp","LOP","84","test_1","SCHNITT","true","true","shallow","","2","false","",""
"1054","<p style='position: relative; text-align: center;font-size: 28px; line-height: 1.5'>SCHNITT</p><br>","50","html-slider-response","370","281274","0.0-17.0-0.34-2.34","fj0sfnk5mm1ctwp","LOP","85","test_1","SCHNITT","true","true","shallow","","2","","500",""
"null","","null","html-keyboard-response","371","281776","0.0-17.0-0.35-0.35","fj0sfnk5mm1ctwp","LOP","85","test_1","REZEPT","true","false","","","2","","",""
"215","<p style='position: relative; text-align: center;font-size: 28px; line-height: 1.5'>REZEPT</p>","a","categorize-html","372","281994","0.0-17.0-0.35-1.35","fj0sfnk5mm1ctwp","LOP","85","test_1","REZEPT","true","false","","","2","false","",""
"954.0000000000582","<p style='position: relative; text-align: center;font-size: 28px; line-height: 1.5'>REZEPT</p><br>","50","html-slider-response","373","282950","0.0-17.0-0.35-2.35","fj0sfnk5mm1ctwp","LOP","86","test_1","REZEPT","true","false","","","2","","500",""
"null","","null","html-keyboard-response","374","283452","0.0-17.0-0.36-0.36","fj0sfnk5mm1ctwp","LOP","86","test_1","AUFNAHME","true","false","","","2","","",""
"199.0000000000582","<p style='position: relative; text-align: center;font-size: 28px; line-height: 1.5'>AUFNAHME</p>","a","categorize-html","375","283653","0.0-17.0-0.36-1.36","fj0sfnk5mm1ctwp","LOP","86","test_1","AUFNAHME","true","false","","","2","false","",""
"1078","<p style='position: relative; text-align: center;font-size: 28px; line-height: 1.5'>AUFNAHME</p><br>","50","html-slider-response","376","284732","0.0-17.0-0.36-2.36","fj0sfnk5mm1ctwp","LOP","87","test_1","AUFNAHME","true","false","","","2","","500",""
"null","","null","html-keyboard-response","377","285234","0.0-17.0-0.37-0.37","fj0sfnk5mm1ctwp","LOP","87","test_1","STUHL","true","false","","","2","","",""
"237","<p style='position: relative; text-align: center;font-size: 28px; line-height: 1.5'>STUHL</p>","a","categorize-html","378","285474","0.0-17.0-0.37-1.37","fj0sfnk5mm1ctwp","LOP","87","test_1","STUHL","true","false","","","2","false","",""
"893","<p style='position: relative; text-align: center;font-size: 28px; line-height: 1.5'>STUHL</p><br>","50","html-slider-response","379","286368","0.0-17.0-0.37-2.37","fj0sfnk5mm1ctwp","LOP","88","test_1","STUHL","true","false","","","2","","500",""
"null","","null","html-keyboard-response","380","286870","0.0-17.0-0.38-0.38","fj0sfnk5mm1ctwp","LOP","88","test_1","NETZ","true","true","deep","","2","","",""
"117","<p style='position: relative; text-align: center;font-size: 28px; line-height: 1.5'>NETZ</p>","a","categorize-html","381","286990","0.0-17.0-0.38-1.38","fj0sfnk5mm1ctwp","LOP","88","test_1","NETZ","true","true","deep","","2","false","",""
"1085.9999999999418","<p style='position: relative; text-align: center;font-size: 28px; line-height: 1.5'>NETZ</p><br>","50","html-slider-response","382","288077","0.0-17.0-0.38-2.38","fj0sfnk5mm1ctwp","LOP","89","test_1","NETZ","true","true","deep","","2","","500",""
"null","","null","html-keyboard-response","383","288578","0.0-17.0-0.39-0.39","fj0sfnk5mm1ctwp","LOP","89","test_1","RÜSTUNG","true","false","","","2","","",""
"241","<p style='position: relative; text-align: center;font-size: 28px; line-height: 1.5'>RÜSTUNG</p>","a","categorize-html","384","288821","0.0-17.0-0.39-1.39","fj0sfnk5mm1ctwp","LOP","89","test_1","RÜSTUNG","true","false","","","2","false","",""
"1261","<p style='position: relative; text-align: center;font-size: 28px; line-height: 1.5'>RÜSTUNG</p><br>","50","html-slider-response","385","290083","0.0-17.0-0.39-2.39","fj0sfnk5mm1ctwp","LOP","90","test_1","RÜSTUNG","true","false","","","2","","500",""
"null","","null","html-keyboard-response","386","290585","0.0-17.0-0.40-0.40","fj0sfnk5mm1ctwp","LOP","90","test_1","MINUTE","true","true","shallow","","2","","",""
"174.9999999999418","<p style='position: relative; text-align: center;font-size: 28px; line-height: 1.5'>MINUTE</p>","a","categorize-html","387","290763","0.0-17.0-0.40-1.40","fj0sfnk5mm1ctwp","LOP","90","test_1","MINUTE","true","true","shallow","","2","false","",""
"1099","<p style='position: relative; text-align: center;font-size: 28px; line-height: 1.5'>MINUTE</p><br>","50","html-slider-response","388","291863","0.0-17.0-0.40-2.40","fj0sfnk5mm1ctwp","LOP","91","test_1","MINUTE","true","true","shallow","","2","","500",""
"null","","null","html-keyboard-response","389","292365","0.0-17.0-0.41-0.41","fj0sfnk5mm1ctwp","LOP","91","test_1","FASSUNG","true","true","shallow","","2","","",""
"217","<p style='position: relative; text-align: center;font-size: 28px; line-height: 1.5'>FASSUNG</p>","a","categorize-html","390","292585","0.0-17.0-0.41-1.41","fj0sfnk5mm1ctwp","LOP","91","test_1","FASSUNG","true","true","shallow","","2","false","",""
"1715.9999999999418","<p style='position: relative; text-align: center;font-size: 28px; line-height: 1.5'>FASSUNG</p><br>","50","html-slider-response","391","294303","0.0-17.0-0.41-2.41","fj0sfnk5mm1ctwp","LOP","92","test_1","FASSUNG","true","true","shallow","","2","","500",""
"null","","null","html-keyboard-response","392","294805","0.0-17.0-0.42-0.42","fj0sfnk5mm1ctwp","LOP","92","test_1","KABEL","true","true","shallow","","2","","",""
"261","<p style='position: relative; text-align: center;font-size: 28px; line-height: 1.5'>KABEL</p>","a","categorize-html","393","295068","0.0-17.0-0.42-1.42","fj0sfnk5mm1ctwp","LOP","92","test_1","KABEL","true","true","shallow","","2","false","",""
"1640","<p style='position: relative; text-align: center;font-size: 28px; line-height: 1.5'>KABEL</p><br>","50","html-slider-response","394","296710","0.0-17.0-0.42-2.42","fj0sfnk5mm1ctwp","LOP","93","test_1","KABEL","true","true","shallow","","2","","500",""
"null","","null","html-keyboard-response","395","297212","0.0-17.0-0.43-0.43","fj0sfnk5mm1ctwp","LOP","93","test_1","SAAT","true","false","","","2","","",""
"349","<p style='position: relative; text-align: center;font-size: 28px; line-height: 1.5'>SAAT</p>","a","categorize-html","396","297563","0.0-17.0-0.43-1.43","fj0sfnk5mm1ctwp","LOP","93","test_1","SAAT","true","false","","","2","false","",""
"1279","<p style='position: relative; text-align: center;font-size: 28px; line-height: 1.5'>SAAT</p><br>","50","html-slider-response","397","298843","0.0-17.0-0.43-2.43","fj0sfnk5mm1ctwp","LOP","94","test_1","SAAT","true","false","","","2","","500",""
"null","","null","html-keyboard-response","398","299345","0.0-17.0-0.44-0.44","fj0sfnk5mm1ctwp","LOP","94","test_1","SEGEL","true","false","","","2","","",""
"246","<p style='position: relative; text-align: center;font-size: 28px; line-height: 1.5'>SEGEL</p>","a","categorize-html","399","299594","0.0-17.0-0.44-1.44","fj0sfnk5mm1ctwp","LOP","94","test_1","SEGEL","true","false","","","2","false","",""
"2530","<p style='position: relative; text-align: center;font-size: 28px; line-height: 1.5'>SEGEL</p><br>","50","html-slider-response","400","302125","0.0-17.0-0.44-2.44","fj0sfnk5mm1ctwp","LOP","95","test_1","SEGEL","true","false","","","2","","500",""
"null","","null","html-keyboard-response","401","302626","0.0-17.0-0.45-0.45","fj0sfnk5mm1ctwp","LOP","95","test_1","AMPEL","true","false","","","2","","",""
"1010","<p style='position: relative; text-align: center;font-size: 28px; line-height: 1.5'>AMPEL</p>","b","categorize-html","402","303638","0.0-17.0-0.45-1.45","fj0sfnk5mm1ctwp","LOP","95","test_1","AMPEL","true","false","","","2","false","",""
"1429","<p style='position: relative; text-align: center;font-size: 28px; line-height: 1.5'>AMPEL</p><br>","50","html-slider-response","403","305068","0.0-17.0-0.45-2.45","fj0sfnk5mm1ctwp","LOP","96","test_1","AMPEL","true","false","","","2","","500",""
"null","","null","html-keyboard-response","404","305570","0.0-17.0-0.46-0.46","fj0sfnk5mm1ctwp","LOP","96","test_1","WAAGE","true","false","","","2","","",""
"241","<p style='position: relative; text-align: center;font-size: 28px; line-height: 1.5'>WAAGE</p>","b","categorize-html","405","305813","0.0-17.0-0.46-1.46","fj0sfnk5mm1ctwp","LOP","96","test_1","WAAGE","true","false","","","2","false","",""
"1132","<p style='position: relative; text-align: center;font-size: 28px; line-height: 1.5'>WAAGE</p><br>","50","html-slider-response","406","306947","0.0-17.0-0.46-2.46","fj0sfnk5mm1ctwp","LOP","97","test_1","WAAGE","true","false","","","2","","500",""
"null","","null","html-keyboard-response","407","307449","0.0-17.0-0.47-0.47","fj0sfnk5mm1ctwp","LOP","97","test_1","SCHILD","true","true","shallow","","2","","",""
"193.9999999999418","<p style='position: relative; text-align: center;font-size: 28px; line-height: 1.5'>SCHILD</p>","b","categorize-html","408","307645","0.0-17.0-0.47-1.47","fj0sfnk5mm1ctwp","LOP","97","test_1","SCHILD","true","true","shallow","","2","false","",""
"1201","<p style='position: relative; text-align: center;font-size: 28px; line-height: 1.5'>SCHILD</p><br>","50","html-slider-response","409","308847","0.0-17.0-0.47-2.47","fj0sfnk5mm1ctwp","LOP","98","test_1","SCHILD","true","true","shallow","","2","","500",""
"null","","null","html-keyboard-response","410","309348","0.0-17.0-0.48-0.48","fj0sfnk5mm1ctwp","LOP","98","test_1","WÄHRUNG","true","true","deep","","2","","",""
"286.9999999999418","<p style='position: relative; text-align: center;font-size: 28px; line-height: 1.5'>WÄHRUNG</p>","b","categorize-html","411","309637","0.0-17.0-0.48-1.48","fj0sfnk5mm1ctwp","LOP","98","test_1","WÄHRUNG","true","true","deep","","2","false","",""
"990.0000000000582","<p style='position: relative; text-align: center;font-size: 28px; line-height: 1.5'>WÄHRUNG</p><br>","50","html-slider-response","412","310628","0.0-17.0-0.48-2.48","fj0sfnk5mm1ctwp","LOP","99","test_1","WÄHRUNG","true","true","deep","","2","","500",""
"null","","null","html-keyboard-response","413","311130","0.0-17.0-0.49-0.49","fj0sfnk5mm1ctwp","LOP","99","test_1","STAND","true","true","deep","","2","","",""
"323","<p style='position: relative; text-align: center;font-size: 28px; line-height: 1.5'>STAND</p>","b","categorize-html","414","311455","0.0-17.0-0.49-1.49","fj0sfnk5mm1ctwp","LOP","99","test_1","STAND","true","true","deep","","2","false","",""
"1522","<p style='position: relative; text-align: center;font-size: 28px; line-height: 1.5'>STAND</p><br>","50","html-slider-response","415","312978","0.0-17.0-0.49-2.49","fj0sfnk5mm1ctwp","LOP","100","test_1","STAND","true","true","deep","","2","","500",""
"899","<p id=""Header"">Pause</p><p style=""margin-top: 20% max-width: 85%;"">Block 2/4 der Testphase ist geschafft! Sie können an dieser Stelle eine kurze Pause machen.</p><p>Klicken Sie auf ""Weiter"", um den nächsten Block zu starten.</p>","0","html-button-response","416","313878","0.0-18.0","fj0sfnk5mm1ctwp","LOP","100","instr","","","","","","","","",""
"null","","null","html-keyboard-response","417","314380","0.0-19.0-0.0-0.0","fj0sfnk5mm1ctwp","LOP","100","test_1","SPALTE","true","false","","","3","","",""
"325","<p style='position: relative; text-align: center;font-size: 28px; line-height: 1.5'>SPALTE</p>","b","categorize-html","418","314708","0.0-19.0-0.0-1.0","fj0sfnk5mm1ctwp","LOP","100","test_1","SPALTE","true","false","","","3","false","",""
"1051","<p style='position: relative; text-align: center;font-size: 28px; line-height: 1.5'>SPALTE</p><br>","50","html-slider-response","419","315761","0.0-19.0-0.0-2.0","fj0sfnk5mm1ctwp","LOP","101","test_1","SPALTE","true","false","","","3","","500",""
"null","","null","html-keyboard-response","420","316263","0.0-19.0-0.1-0.1","fj0sfnk5mm1ctwp","LOP","101","test_1","VERMERK","true","false","","","3","","",""
"417","<p style='position: relative; text-align: center;font-size: 28px; line-height: 1.5'>VERMERK</p>","b","categorize-html","421","316682","0.0-19.0-0.1-1.1","fj0sfnk5mm1ctwp","LOP","101","test_1","VERMERK","true","false","","","3","false","",""
"1952","<p style='position: relative; text-align: center;font-size: 28px; line-height: 1.5'>VERMERK</p><br>","50","html-slider-response","422","318635","0.0-19.0-0.1-2.1","fj0sfnk5mm1ctwp","LOP","102","test_1","VERMERK","true","false","","","3","","500",""
"null","","null","html-keyboard-response","423","319137","0.0-19.0-0.2-0.2","fj0sfnk5mm1ctwp","LOP","102","test_1","PROGRAMM","true","false","","","3","","",""
"694","<p style='position: relative; text-align: center;font-size: 28px; line-height: 1.5'>PROGRAMM</p>","b","categorize-html","424","319834","0.0-19.0-0.2-1.2","fj0sfnk5mm1ctwp","LOP","102","test_1","PROGRAMM","true","false","","","3","false","",""
"1503","<p style='position: relative; text-align: center;font-size: 28px; line-height: 1.5'>PROGRAMM</p><br>","50","html-slider-response","425","321338","0.0-19.0-0.2-2.2","fj0sfnk5mm1ctwp","LOP","103","test_1","PROGRAMM","true","false","","","3","","500",""
"null","","null","html-keyboard-response","426","321840","0.0-19.0-0.3-0.3","fj0sfnk5mm1ctwp","LOP","103","test_1","PFLAUME","true","true","shallow","","3","","",""
"165","<p style='position: relative; text-align: center;font-size: 28px; line-height: 1.5'>PFLAUME</p>","b","categorize-html","427","322008","0.0-19.0-0.3-1.3","fj0sfnk5mm1ctwp","LOP","103","test_1","PFLAUME","true","true","shallow","","3","false","",""
"1279","<p style='position: relative; text-align: center;font-size: 28px; line-height: 1.5'>PFLAUME</p><br>","50","html-slider-response","428","323288","0.0-19.0-0.3-2.3","fj0sfnk5mm1ctwp","LOP","104","test_1","PFLAUME","true","true","shallow","","3","","500",""
"null","","null","html-keyboard-response","429","323790","0.0-19.0-0.4-0.4","fj0sfnk5mm1ctwp","LOP","104","test_1","ABRUF","true","true","shallow","","3","","",""
"201","<p style='position: relative; text-align: center;font-size: 28px; line-height: 1.5'>ABRUF</p>","b","categorize-html","430","323993","0.0-19.0-0.4-1.4","fj0sfnk5mm1ctwp","LOP","104","test_1","ABRUF","true","true","shallow","","3","false","",""
"970","<p style='position: relative; text-align: center;font-size: 28px; line-height: 1.5'>ABRUF</p><br>","50","html-slider-response","431","324964","0.0-19.0-0.4-2.4","fj0sfnk5mm1ctwp","LOP","105","test_1","ABRUF","true","true","shallow","","3","","500",""
"null","","null","html-keyboard-response","432","325466","0.0-19.0-0.5-0.5","fj0sfnk5mm1ctwp","LOP","105","test_1","METHODE","true","true","deep","","3","","",""
"206","<p style='position: relative; text-align: center;font-size: 28px; line-height: 1.5'>METHODE</p>","b","categorize-html","433","325675","0.0-19.0-0.5-1.5","fj0sfnk5mm1ctwp","LOP","105","test_1","METHODE","true","true","deep","","3","false","",""
"1060","<p style='position: relative; text-align: center;font-size: 28px; line-height: 1.5'>METHODE</p><br>","50","html-slider-response","434","326737","0.0-19.0-0.5-2.5","fj0sfnk5mm1ctwp","LOP","106","test_1","METHODE","true","true","deep","","3","","500",""
"null","","null","html-keyboard-response","435","327239","0.0-19.0-0.6-0.6","fj0sfnk5mm1ctwp","LOP","106","test_1","WAPPEN","true","true","shallow","","3","","",""
"351","<p style='position: relative; text-align: center;font-size: 28px; line-height: 1.5'>WAPPEN</p>","b","categorize-html","436","327592","0.0-19.0-0.6-1.6","fj0sfnk5mm1ctwp","LOP","106","test_1","WAPPEN","true","true","shallow","","3","false","",""
"1357.0000000000582","<p style='position: relative; text-align: center;font-size: 28px; line-height: 1.5'>WAPPEN</p><br>","50","html-slider-response","437","328951","0.0-19.0-0.6-2.6","fj0sfnk5mm1ctwp","LOP","107","test_1","WAPPEN","true","true","shallow","","3","","500",""
"null","","null","html-keyboard-response","438","329453","0.0-19.0-0.7-0.7","fj0sfnk5mm1ctwp","LOP","107","test_1","TITEL","true","false","","","3","","",""
"302","<p style='position: relative; text-align: center;font-size: 28px; line-height: 1.5'>TITEL</p>","b","categorize-html","439","329758","0.0-19.0-0.7-1.7","fj0sfnk5mm1ctwp","LOP","107","test_1","TITEL","true","false","","","3","false","",""
"1068","<p style='position: relative; text-align: center;font-size: 28px; line-height: 1.5'>TITEL</p><br>","50","html-slider-response","440","330828","0.0-19.0-0.7-2.7","fj0sfnk5mm1ctwp","LOP","108","test_1","TITEL","true","false","","","3","","500",""
"null","","null","html-keyboard-response","441","331330","0.0-19.0-0.8-0.8","fj0sfnk5mm1ctwp","LOP","108","test_1","GEWÄHR","true","false","","","3","","",""
"160.0000000000582","<p style='position: relative; text-align: center;font-size: 28px; line-height: 1.5'>GEWÄHR</p>","b","categorize-html","442","331494","0.0-19.0-0.8-1.8","fj0sfnk5mm1ctwp","LOP","108","test_1","GEWÄHR","true","false","","","3","false","",""
"1361","<p style='position: relative; text-align: center;font-size: 28px; line-height: 1.5'>GEWÄHR</p><br>","50","html-slider-response","443","332857","0.0-19.0-0.8-2.8","fj0sfnk5mm1ctwp","LOP","109","test_1","GEWÄHR","true","false","","","3","","500",""
"null","","null","html-keyboard-response","444","333359","0.0-19.0-0.9-0.9","fj0sfnk5mm1ctwp","LOP","109","test_1","KORB","true","false","","","3","","",""
"246","<p style='position: relative; text-align: center;font-size: 28px; line-height: 1.5'>KORB</p>","b","categorize-html","445","333607","0.0-19.0-0.9-1.9","fj0sfnk5mm1ctwp","LOP","109","test_1","KORB","true","false","","","3","false","",""
"1198","<p style='position: relative; text-align: center;font-size: 28px; line-height: 1.5'>KORB</p><br>","50","html-slider-response","446","334807","0.0-19.0-0.9-2.9","fj0sfnk5mm1ctwp","LOP","110","test_1","KORB","true","false","","","3","","500",""
"null","","null","html-keyboard-response","447","335309","0.0-19.0-0.10-0.10","fj0sfnk5mm1ctwp","LOP","110","test_1","REDE","true","true","deep","","3","","",""
"103","<p style='position: relative; text-align: center;font-size: 28px; line-height: 1.5'>REDE</p>","b","categorize-html","448","335414","0.0-19.0-0.10-1.10","fj0sfnk5mm1ctwp","LOP","110","test_1","REDE","true","true","deep","","3","false","",""
"1252","<p style='position: relative; text-align: center;font-size: 28px; line-height: 1.5'>REDE</p><br>","50","html-slider-response","449","336668","0.0-19.0-0.10-2.10","fj0sfnk5mm1ctwp","LOP","111","test_1","REDE","true","true","deep","","3","","500",""
"null","","null","html-keyboard-response","450","337170","0.0-19.0-0.11-0.11","fj0sfnk5mm1ctwp","LOP","111","test_1","STUDIO","true","true","deep","","3","","",""
