"rt","stimulus","response","trial_type","trial_index","time_elapsed","internal_node_id","subject","condition","trial_num","exp_part","correct","word","test","learned","strength","view_history","block_num","slider_start","question_order"
"1100","<div class=""Instruction""><p id=""Header""> Herzlich Willkommen zu dieser Online-Studie der Universität Freiburg!</p>In diesem Experiment wollen wir das menschliche Gedächtnis untersuchen. Daher wird es Ihre Aufgabe sein, sich Wörter zu merken, die auf dem Bildschirm präsentiert werden. Später werden wir Sie darum bitten, sich an diese Wörter zu erinnern. <br><br>Das Experiment wird etwa XXX Minuten dauern. Bitte sorgen Sie dafür, dass Sie das ganze Experiment ohne Unterbrechungen durchführen können. Vermeiden Sie bitte außerdem Ablenkungen jeglicher Art (z.B. durch Fernseher, Musik, Handy, Haustiere etc.). Sie können an dieser Studie nur von einem PC, nicht von einem Tablet oder Smartphone aus teilnehmen. <br><br><em>Wichtig: Bitte schließen Sie das Browser-Fenster während der Studie nicht und laden Sie diese Seite nicht neu! </em><br><br>","0","html-button-response","0","1104","0.0-0.0","erkuoqnk6aj4vt1","strength","0","instr","NA","","","","","","","",""
"928","<div class=""Instruction""><p id=""Header"">Informationen über die Studie</p><em>Freiwilligkeit und Anonymität</em><br>Die Teilnahme an dieser Studie ist freiwillig. Sie können jederzeit und ohne Angabe von Gründen Ihre Einwilligung zur Teilnahme an der Studie widerrufen, indem Sie das Browser-Fenster schließen.<br><br><em>Umgang mit Ihren Daten</em><br>Ihre Daten werden ausschließlich anonymisiert gespeichert. Entsprechend ist nach Abschluss dieser Datenerhebung auch keine gezielte Löschung Ihres persönlichen Datensatzes mehr möglich, da wir Sie diesem nicht zuordnen können. Bitte machen Sie sich bewusst, dass die Ergebnisse der Studie als wissenschaftliche Publikation veröffentlicht werden können. Die Daten dieser Studie können zur Gewährleistung von Transparenz in der Wissenschaft für eine Nachnutzung durch Dritte als offene Daten im Internet in einem Datenarchiv zugänglich gemacht werden. Damit folgt diese Studie den Empfehlungen der Deutschen Forschungsgemeinschaft (DFG) und der Deutschen Gesellschaft für Psychologie (DGPs) zur Qualitätssicherung in der Forschung.<br><br><em>Ansprechperson bei Fragen</em><br>Wenn sie jetzt oder nach dem Versuch Fragen zu diesen Informationen oder zum Experiment haben, wenden Sie sich bitte an <em>mjakob@cs.uni-freiburg.de.</em><br><br>Hiermit versichere ich, dass ich die oben beschriebenen Teilnahmeinformationen verstanden habe und mit den genannten Teilnahmebedingungen einverstanden bin.","1","html-button-response","1","2034","0.0-1.0","erkuoqnk6aj4vt1","strength","0","instr","NA","","","","","","","",""
"1886","","","instructions","2","3921","0.0-2.0","erkuoqnk6aj4vt1","strength","0","instr","NA","","","","","[{""page_index"":0,""viewing_time"":768},{""page_index"":1,""viewing_time"":1116}]","","",""
"5432","","{""age"":""23"",""native"":""deutsch"",""gender"":""weiblich"",""subject"":""""}","survey-text","3","9377","0.0-3.0-0.0","erkuoqnk6aj4vt1","strength","0","demographics","NA","","","","","","","",""
"941.9999999999982","<div class=""Instruction""><p id=""Header"">Lernphase</p><p>Nun beginnt die Lernphase des Experiments, in der Sie sich Wörter möglichst gut einprägen sollen. Dafür werden gleich mehrereWörter nacheinander auf dem Bildschirm erscheinen. Manche Wörter erscheinen mehrmals, andere nur ein Mal. Bitte versuchen Sie, sich diese Wörter möglichst gut zu merken, da Sie sich im nächsten Teil daran erinnern sollen. </p><p>Insgesamt wird es <strong>vier Blöcke</strong> geben, zwischen denen Sie jeweils eine kurze Pause machen können. </p><em>Bitte benutzen Sie keine Hilfsmittel, wie Papier und Stift, Handy, oder einen Text-Editor auf dem Computer, sondern versuchen Sie, sich die Wörter ohne Hilfsmittel möglichst gut zu merken!</em> Da wir in dieser Studie das menschliche Gedächtnis untersuchen, ist dies essentiell. Danke für Ihre Compliance! <br><br>Klicken Sie auf „Weiter“, wenn Sie bereit sind, mit der Lernphase zu beginnen.</div>","0","html-button-response","4","10320","0.0-4.0","erkuoqnk6aj4vt1","strength","0","instr","NA","","","","","","","",""
"null","","null","html-keyboard-response","5","10824","0.0-5.0-0.0-0.0","erkuoqnk6aj4vt1","strength","0","learning","NA","REIGEN","false","true","strong","","1","",""
"null","<p style='position: relative; margin-left: auto; margin-right: auto; text-align: right;font-size: 28px; line-height: 1.5'>REIGEN</p>","null","html-keyboard-response","6","12827","0.0-5.0-0.0-1.0","erkuoqnk6aj4vt1","strength","1","learning","NA","REIGEN","false","true","strong","","1","",""
"null","","null","html-keyboard-response","7","13330","0.0-5.0-0.1-0.1","erkuoqnk6aj4vt1","strength","1","learning","NA","SAMMLUNG","true","true","strong","","1","",""
"null","<p style='position: relative; margin-left: auto; margin-right: auto; text-align: right;font-size: 28px; line-height: 1.5'>SAMMLUNG</p>","null","html-keyboard-response","8","15333","0.0-5.0-0.1-1.1","erkuoqnk6aj4vt1","strength","2","learning","NA","SAMMLUNG","true","true","strong","","1","",""
"null","","null","html-keyboard-response","9","15835","0.0-5.0-0.2-0.2","erkuoqnk6aj4vt1","strength","2","learning","NA","KAHN","true","true","strong","","1","",""
"null","<p style='position: relative; margin-left: auto; margin-right: auto; text-align: right;font-size: 28px; line-height: 1.5'>KAHN</p>","null","html-keyboard-response","10","17838","0.0-5.0-0.2-1.2","erkuoqnk6aj4vt1","strength","3","learning","NA","KAHN","true","true","strong","","1","",""
"null","","null","html-keyboard-response","11","18340","0.0-5.0-0.3-0.3","erkuoqnk6aj4vt1","strength","3","learning","NA","SEKTOR","true","true","strong","","1","",""
"null","<p style='position: relative; margin-left: auto; margin-right: auto; text-align: right;font-size: 28px; line-height: 1.5'>SEKTOR</p>","null","html-keyboard-response","12","20343","0.0-5.0-0.3-1.3","erkuoqnk6aj4vt1","strength","4","learning","NA","SEKTOR","true","true","strong","","1","",""
"null","","null","html-keyboard-response","13","20845","0.0-5.0-0.4-0.4","erkuoqnk6aj4vt1","strength","4","learning","NA","STREIFEN","false","true","strong","","1","",""
"null","<p style='position: relative; margin-left: auto; margin-right: auto; text-align: right;font-size: 28px; line-height: 1.5'>STREIFEN</p>","null","html-keyboard-response","14","22848","0.0-5.0-0.4-1.4","erkuoqnk6aj4vt1","strength","5","learning","NA","STREIFEN","false","true","strong","","1","",""
"null","","null","html-keyboard-response","15","23349","0.0-5.0-0.5-0.5","erkuoqnk6aj4vt1","strength","5","learning","NA","TAGUNG","true","true","strong","","1","",""
"null","<p style='position: relative; margin-left: auto; margin-right: auto; text-align: right;font-size: 28px; line-height: 1.5'>TAGUNG</p>","null","html-keyboard-response","16","25352","0.0-5.0-0.5-1.5","erkuoqnk6aj4vt1","strength","6","learning","NA","TAGUNG","true","true","strong","","1","",""
"null","","null","html-keyboard-response","17","25854","0.0-5.0-0.6-0.6","erkuoqnk6aj4vt1","strength","6","learning","NA","EPOCHE","false","true","strong","","1","",""
"null","<p style='position: relative; margin-left: auto; margin-right: auto; text-align: right;font-size: 28px; line-height: 1.5'>EPOCHE</p>","null","html-keyboard-response","18","27856","0.0-5.0-0.6-1.6","erkuoqnk6aj4vt1","strength","7","learning","NA","EPOCHE","false","true","strong","","1","",""
"null","","null","html-keyboard-response","19","28358","0.0-5.0-0.7-0.7","erkuoqnk6aj4vt1","strength","7","learning","NA","VORHANG","false","true","strong","","1","",""
"null","<p style='position: relative; margin-left: auto; margin-right: auto; text-align: right;font-size: 28px; line-height: 1.5'>VORHANG</p>","null","html-keyboard-response","20","30360","0.0-5.0-0.7-1.7","erkuoqnk6aj4vt1","strength","8","learning","NA","VORHANG","false","true","strong","","1","",""
"null","","null","html-keyboard-response","21","30863","0.0-5.0-0.8-0.8","erkuoqnk6aj4vt1","strength","8","learning","NA","HUHN","false","true","strong","","1","",""
"null","<p style='position: relative; margin-left: auto; margin-right: auto; text-align: right;font-size: 28px; line-height: 1.5'>HUHN</p>","null","html-keyboard-response","22","32865","0.0-5.0-0.8-1.8","erkuoqnk6aj4vt1","strength","9","learning","NA","HUHN","false","true","strong","","1","",""
"null","","null","html-keyboard-response","23","33374","0.0-5.0-0.9-0.9","erkuoqnk6aj4vt1","strength","9","learning","NA","SEKT","true","true","strong","","1","",""
"null","<p style='position: relative; margin-left: auto; margin-right: auto; text-align: right;font-size: 28px; line-height: 1.5'>SEKT</p>","null","html-keyboard-response","24","35376","0.0-5.0-0.9-1.9","erkuoqnk6aj4vt1","strength","10","learning","NA","SEKT","true","true","strong","","1","",""
"null","","null","html-keyboard-response","25","35878","0.0-5.0-0.10-0.10","erkuoqnk6aj4vt1","strength","10","learning","NA","EFFEKT","false","true","strong","","1","",""
"null","<p style='position: relative; margin-left: auto; margin-right: auto; text-align: right;font-size: 28px; line-height: 1.5'>EFFEKT</p>","null","html-keyboard-response","26","37881","0.0-5.0-0.10-1.10","erkuoqnk6aj4vt1","strength","11","learning","NA","EFFEKT","false","true","strong","","1","",""
"null","","null","html-keyboard-response","27","38383","0.0-5.0-0.11-0.11","erkuoqnk6aj4vt1","strength","11","learning","NA","NUMMER","true","true","strong","","1","",""
"null","<p style='position: relative; margin-left: auto; margin-right: auto; text-align: right;font-size: 28px; line-height: 1.5'>NUMMER</p>","null","html-keyboard-response","28","40385","0.0-5.0-0.11-1.11","erkuoqnk6aj4vt1","strength","12","learning","NA","NUMMER","true","true","strong","","1","",""
"null","","null","html-keyboard-response","29","40888","0.0-5.0-0.12-0.12","erkuoqnk6aj4vt1","strength","12","learning","NA","ARBEITER","true","true","weak","","1","",""
"null","<p style='position: relative; margin-left: auto; margin-right: auto; text-align: right;font-size: 28px; line-height: 1.5'>ARBEITER</p>","null","html-keyboard-response","30","42889","0.0-5.0-0.12-1.12","erkuoqnk6aj4vt1","strength","13","learning","NA","ARBEITER","true","true","weak","","1","",""
"null","","null","html-keyboard-response","31","43391","0.0-5.0-0.13-0.13","erkuoqnk6aj4vt1","strength","13","learning","NA","TRUPPE","false","true","strong","","1","",""
"null","<p style='position: relative; margin-left: auto; margin-right: auto; text-align: right;font-size: 28px; line-height: 1.5'>TRUPPE</p>","null","html-keyboard-response","32","45393","0.0-5.0-0.13-1.13","erkuoqnk6aj4vt1","strength","14","learning","NA","TRUPPE","false","true","strong","","1","",""
"null","","null","html-keyboard-response","33","45895","0.0-5.0-0.14-0.14","erkuoqnk6aj4vt1","strength","14","learning","NA","TRUPPE","false","true","strong","","1","",""
"null","<p style='position: relative; margin-left: auto; margin-right: auto; text-align: right;font-size: 28px; line-height: 1.5'>TRUPPE</p>","null","html-keyboard-response","34","47897","0.0-5.0-0.14-1.14","erkuoqnk6aj4vt1","strength","15","learning","NA","TRUPPE","false","true","strong","","1","",""
"null","","null","html-keyboard-response","35","48399","0.0-5.0-0.15-0.15","erkuoqnk6aj4vt1","strength","15","learning","NA","DAMM","false","true","strong","","1","",""
"null","<p style='position: relative; margin-left: auto; margin-right: auto; text-align: right;font-size: 28px; line-height: 1.5'>DAMM</p>","null","html-keyboard-response","36","50402","0.0-5.0-0.15-1.15","erkuoqnk6aj4vt1","strength","16","learning","NA","DAMM","false","true","strong","","1","",""
"null","","null","html-keyboard-response","37","50904","0.0-5.0-0.16-0.16","erkuoqnk6aj4vt1","strength","16","learning","NA","TASCHE","false","true","strong","","1","",""
"null","<p style='position: relative; margin-left: auto; margin-right: auto; text-align: right;font-size: 28px; line-height: 1.5'>TASCHE</p>","null","html-keyboard-response","38","52906","0.0-5.0-0.16-1.16","erkuoqnk6aj4vt1","strength","17","learning","NA","TASCHE","false","true","strong","","1","",""
"null","","null","html-keyboard-response","39","53408","0.0-5.0-0.17-0.17","erkuoqnk6aj4vt1","strength","17","learning","NA","SEGEL","false","true","strong","","1","",""
"null","<p style='position: relative; margin-left: auto; margin-right: auto; text-align: right;font-size: 28px; line-height: 1.5'>SEGEL</p>","null","html-keyboard-response","40","55411","0.0-5.0-0.17-1.17","erkuoqnk6aj4vt1","strength","18","learning","NA","SEGEL","false","true","strong","","1","",""
"null","","null","html-keyboard-response","41","55913","0.0-5.0-0.18-0.18","erkuoqnk6aj4vt1","strength","18","learning","NA","STATION","false","true","strong","","1","",""
"null","<p style='position: relative; margin-left: auto; margin-right: auto; text-align: right;font-size: 28px; line-height: 1.5'>STATION</p>","null","html-keyboard-response","42","57915","0.0-5.0-0.18-1.18","erkuoqnk6aj4vt1","strength","19","learning","NA","STATION","false","true","strong","","1","",""
"null","","null","html-keyboard-response","43","58417","0.0-5.0-0.19-0.19","erkuoqnk6aj4vt1","strength","19","learning","NA","THEORIE","true","true","weak","","1","",""
"null","<p style='position: relative; margin-left: auto; margin-right: auto; text-align: right;font-size: 28px; line-height: 1.5'>THEORIE</p>","null","html-keyboard-response","44","60420","0.0-5.0-0.19-1.19","erkuoqnk6aj4vt1","strength","20","learning","NA","THEORIE","true","true","weak","","1","",""
"null","","null","html-keyboard-response","45","60922","0.0-5.0-0.20-0.20","erkuoqnk6aj4vt1","strength","20","learning","NA","VERMERK","false","true","strong","","1","",""
"null","<p style='position: relative; margin-left: auto; margin-right: auto; text-align: right;font-size: 28px; line-height: 1.5'>VERMERK</p>","null","html-keyboard-response","46","62925","0.0-5.0-0.20-1.20","erkuoqnk6aj4vt1","strength","21","learning","NA","VERMERK","false","true","strong","","1","",""
"null","","null","html-keyboard-response","47","63427","0.0-5.0-0.21-0.21","erkuoqnk6aj4vt1","strength","21","learning","NA","KANAL","true","true","strong","","1","",""
"null","<p style='position: relative; margin-left: auto; margin-right: auto; text-align: right;font-size: 28px; line-height: 1.5'>KANAL</p>","null","html-keyboard-response","48","65429","0.0-5.0-0.21-1.21","erkuoqnk6aj4vt1","strength","22","learning","NA","KANAL","true","true","strong","","1","",""
"null","","null","html-keyboard-response","49","65931","0.0-5.0-0.22-0.22","erkuoqnk6aj4vt1","strength","22","learning","NA","SCHÜRZE","true","true","strong","","1","",""
"null","<p style='position: relative; margin-left: auto; margin-right: auto; text-align: right;font-size: 28px; line-height: 1.5'>SCHÜRZE</p>","null","html-keyboard-response","50","67934","0.0-5.0-0.22-1.22","erkuoqnk6aj4vt1","strength","23","learning","NA","SCHÜRZE","true","true","strong","","1","",""
"null","","null","html-keyboard-response","51","68436","0.0-5.0-0.23-0.23","erkuoqnk6aj4vt1","strength","23","learning","NA","ELLBOGEN","false","true","strong","","1","",""
"null","<p style='position: relative; margin-left: auto; margin-right: auto; text-align: right;font-size: 28px; line-height: 1.5'>ELLBOGEN</p>","null","html-keyboard-response","52","70438","0.0-5.0-0.23-1.23","erkuoqnk6aj4vt1","strength","24","learning","NA","ELLBOGEN","false","true","strong","","1","",""
"null","","null","html-keyboard-response","53","70939","0.0-5.0-0.24-0.24","erkuoqnk6aj4vt1","strength","24","learning","NA","LUNGE","true","true","strong","","1","",""
"null","<p style='position: relative; margin-left: auto; margin-right: auto; text-align: right;font-size: 28px; line-height: 1.5'>LUNGE</p>","null","html-keyboard-response","54","72942","0.0-5.0-0.24-1.24","erkuoqnk6aj4vt1","strength","25","learning","NA","LUNGE","true","true","strong","","1","",""
"null","","null","html-keyboard-response","55","73444","0.0-5.0-0.25-0.25","erkuoqnk6aj4vt1","strength","25","learning","NA","RENTE","true","true","strong","","1","",""
"null","<p style='position: relative; margin-left: auto; margin-right: auto; text-align: right;font-size: 28px; line-height: 1.5'>RENTE</p>","null","html-keyboard-response","56","75447","0.0-5.0-0.25-1.25","erkuoqnk6aj4vt1","strength","26","learning","NA","RENTE","true","true","strong","","1","",""
"null","","null","html-keyboard-response","57","75949","0.0-5.0-0.26-0.26","erkuoqnk6aj4vt1","strength","26","learning","NA","JUNGE","true","true","weak","","1","",""
"null","<p style='position: relative; margin-left: auto; margin-right: auto; text-align: right;font-size: 28px; line-height: 1.5'>JUNGE</p>","null","html-keyboard-response","58","77951","0.0-5.0-0.26-1.26","erkuoqnk6aj4vt1","strength","27","learning","NA","JUNGE","true","true","weak","","1","",""
"null","","null","html-keyboard-response","59","78453","0.0-5.0-0.27-0.27","erkuoqnk6aj4vt1","strength","27","learning","NA","BERATUNG","true","true","strong","","1","",""
"null","<p style='position: relative; margin-left: auto; margin-right: auto; text-align: right;font-size: 28px; line-height: 1.5'>BERATUNG</p>","null","html-keyboard-response","60","80456","0.0-5.0-0.27-1.27","erkuoqnk6aj4vt1","strength","28","learning","NA","BERATUNG","true","true","strong","","1","",""
"null","","null","html-keyboard-response","61","80958","0.0-5.0-0.28-0.28","erkuoqnk6aj4vt1","strength","28","learning","NA","DAMM","true","true","strong","","1","",""
"null","<p style='position: relative; margin-left: auto; margin-right: auto; text-align: right;font-size: 28px; line-height: 1.5'>DAMM</p>","null","html-keyboard-response","62","82960","0.0-5.0-0.28-1.28","erkuoqnk6aj4vt1","strength","29","learning","NA","DAMM","true","true","strong","","1","",""
"null","","null","html-keyboard-response","63","83462","0.0-5.0-0.29-0.29","erkuoqnk6aj4vt1","strength","29","learning","NA","IMBISS","true","true","strong","","1","",""
"null","<p style='position: relative; margin-left: auto; margin-right: auto; text-align: right;font-size: 28px; line-height: 1.5'>IMBISS</p>","null","html-keyboard-response","64","85464","0.0-5.0-0.29-1.29","erkuoqnk6aj4vt1","strength","30","learning","NA","IMBISS","true","true","strong","","1","",""
"null","","null","html-keyboard-response","65","85966","0.0-5.0-0.30-0.30","erkuoqnk6aj4vt1","strength","30","learning","NA","MAST","false","true","strong","","1","",""
"null","<p style='position: relative; margin-left: auto; margin-right: auto; text-align: right;font-size: 28px; line-height: 1.5'>MAST</p>","null","html-keyboard-response","66","87968","0.0-5.0-0.30-1.30","erkuoqnk6aj4vt1","strength","31","learning","NA","MAST","false","true","strong","","1","",""
"null","","null","html-keyboard-response","67","88470","0.0-5.0-0.31-0.31","erkuoqnk6aj4vt1","strength","31","learning","NA","DAMPF","false","true","strong","","1","",""
"null","<p style='position: relative; margin-left: auto; margin-right: auto; text-align: right;font-size: 28px; line-height: 1.5'>DAMPF</p>","null","html-keyboard-response","68","90472","0.0-5.0-0.31-1.31","erkuoqnk6aj4vt1","strength","32","learning","NA","DAMPF","false","true","strong","","1","",""
"null","","null","html-keyboard-response","69","90974","0.0-5.0-0.32-0.32","erkuoqnk6aj4vt1","strength","32","learning","NA","DICHTER","false","true","strong","","1","",""
"null","<p style='position: relative; margin-left: auto; margin-right: auto; text-align: right;font-size: 28px; line-height: 1.5'>DICHTER</p>","null","html-keyboard-response","70","92976","0.0-5.0-0.32-1.32","erkuoqnk6aj4vt1","strength","33","learning","NA","DICHTER","false","true","strong","","1","",""
"null","","null","html-keyboard-response","71","93478","0.0-5.0-0.33-0.33","erkuoqnk6aj4vt1","strength","33","learning","NA","FORMAT","false","true","strong","","1","",""
"null","<p style='position: relative; margin-left: auto; margin-right: auto; text-align: right;font-size: 28px; line-height: 1.5'>FORMAT</p>","null","html-keyboard-response","72","95480","0.0-5.0-0.33-1.33","erkuoqnk6aj4vt1","strength","34","learning","NA","FORMAT","false","true","strong","","1","",""
"null","","null","html-keyboard-response","73","95982","0.0-5.0-0.34-0.34","erkuoqnk6aj4vt1","strength","34","learning","NA","STÜCK","true","true","strong","","1","",""
"null","<p style='position: relative; margin-left: auto; margin-right: auto; text-align: right;font-size: 28px; line-height: 1.5'>STÜCK</p>","null","html-keyboard-response","74","97985","0.0-5.0-0.34-1.34","erkuoqnk6aj4vt1","strength","35","learning","NA","STÜCK","true","true","strong","","1","",""
"null","","null","html-keyboard-response","75","98486","0.0-5.0-0.35-0.35","erkuoqnk6aj4vt1","strength","35","learning","NA","HUHN","false","true","strong","","1","",""
"null","<p style='position: relative; margin-left: auto; margin-right: auto; text-align: right;font-size: 28px; line-height: 1.5'>HUHN</p>","null","html-keyboard-response","76","100489","0.0-5.0-0.35-1.35","erkuoqnk6aj4vt1","strength","36","learning","NA","HUHN","false","true","strong","","1","",""
"null","","null","html-keyboard-response","77","100991","0.0-5.0-0.36-0.36","erkuoqnk6aj4vt1","strength","36","learning","NA","RICHTER","false","true","strong","","1","",""
"null","<p style='position: relative; margin-left: auto; margin-right: auto; text-align: right;font-size: 28px; line-height: 1.5'>RICHTER</p>","null","html-keyboard-response","78","102993","0.0-5.0-0.36-1.36","erkuoqnk6aj4vt1","strength","37","learning","NA","RICHTER","false","true","strong","","1","",""
"null","","null","html-keyboard-response","79","103495","0.0-5.0-0.37-0.37","erkuoqnk6aj4vt1","strength","37","learning","NA","TAGUNG","false","true","strong","","1","",""
"null","<p style='position: relative; margin-left: auto; margin-right: auto; text-align: right;font-size: 28px; line-height: 1.5'>TAGUNG</p>","null","html-keyboard-response","80","105498","0.0-5.0-0.37-1.37","erkuoqnk6aj4vt1","strength","38","learning","NA","TAGUNG","false","true","strong","","1","",""
"null","","null","html-keyboard-response","81","106000","0.0-5.0-0.38-0.38","erkuoqnk6aj4vt1","strength","38","learning","NA","TEICH","false","true","strong","","1","",""
"null","<p style='position: relative; margin-left: auto; margin-right: auto; text-align: right;font-size: 28px; line-height: 1.5'>TEICH</p>","null","html-keyboard-response","82","108002","0.0-5.0-0.38-1.38","erkuoqnk6aj4vt1","strength","39","learning","NA","TEICH","false","true","strong","","1","",""
"null","","null","html-keyboard-response","83","108505","0.0-5.0-0.39-0.39","erkuoqnk6aj4vt1","strength","39","learning","NA","ELLBOGEN","true","true","strong","","1","",""
"null","<p style='position: relative; margin-left: auto; margin-right: auto; text-align: right;font-size: 28px; line-height: 1.5'>ELLBOGEN</p>","null","html-keyboard-response","84","110506","0.0-5.0-0.39-1.39","erkuoqnk6aj4vt1","strength","40","learning","NA","ELLBOGEN","true","true","strong","","1","",""
"null","","null","html-keyboard-response","85","111008","0.0-5.0-0.40-0.40","erkuoqnk6aj4vt1","strength","40","learning","NA","VERLAUF","true","true","strong","","1","",""
"null","<p style='position: relative; margin-left: auto; margin-right: auto; text-align: right;font-size: 28px; line-height: 1.5'>VERLAUF</p>","null","html-keyboard-response","86","113011","0.0-5.0-0.40-1.40","erkuoqnk6aj4vt1","strength","41","learning","NA","VERLAUF","true","true","strong","","1","",""
"null","","null","html-keyboard-response","87","113513","0.0-5.0-0.41-0.41","erkuoqnk6aj4vt1","strength","41","learning","NA","WÄHRUNG","true","true","weak","","1","",""
"null","<p style='position: relative; margin-left: auto; margin-right: auto; text-align: right;font-size: 28px; line-height: 1.5'>WÄHRUNG</p>","null","html-keyboard-response","88","115515","0.0-5.0-0.41-1.41","erkuoqnk6aj4vt1","strength","42","learning","NA","WÄHRUNG","true","true","weak","","1","",""
"null","","null","html-keyboard-response","89","116017","0.0-5.0-0.42-0.42","erkuoqnk6aj4vt1","strength","42","learning","NA","KASSE","true","true","weak","","1","",""
"null","<p style='position: relative; margin-left: auto; margin-right: auto; text-align: right;font-size: 28px; line-height: 1.5'>KASSE</p>","null","html-keyboard-response","90","118020","0.0-5.0-0.42-1.42","erkuoqnk6aj4vt1","strength","43","learning","NA","KASSE","true","true","weak","","1","",""
"null","","null","html-keyboard-response","91","118522","0.0-5.0-0.43-0.43","erkuoqnk6aj4vt1","strength","43","learning","NA","EXEMPLAR","false","true","strong","","1","",""
"null","<p style='position: relative; margin-left: auto; margin-right: auto; text-align: right;font-size: 28px; line-height: 1.5'>EXEMPLAR</p>","null","html-keyboard-response","92","120524","0.0-5.0-0.43-1.43","erkuoqnk6aj4vt1","strength","44","learning","NA","EXEMPLAR","false","true","strong","","1","",""
"null","","null","html-keyboard-response","93","121026","0.0-5.0-0.44-0.44","erkuoqnk6aj4vt1","strength","44","learning","NA","STÜCK","false","true","strong","","1","",""
"null","<p style='position: relative; margin-left: auto; margin-right: auto; text-align: right;font-size: 28px; line-height: 1.5'>STÜCK</p>","null","html-keyboard-response","94","123029","0.0-5.0-0.44-1.44","erkuoqnk6aj4vt1","strength","45","learning","NA","STÜCK","false","true","strong","","1","",""
"null","","null","html-keyboard-response","95","123531","0.0-5.0-0.45-0.45","erkuoqnk6aj4vt1","strength","45","learning","NA","SCHÜRZE","false","true","strong","","1","",""
"null","<p style='position: relative; margin-left: auto; margin-right: auto; text-align: right;font-size: 28px; line-height: 1.5'>SCHÜRZE</p>","null","html-keyboard-response","96","125532","0.0-5.0-0.45-1.45","erkuoqnk6aj4vt1","strength","46","learning","NA","SCHÜRZE","false","true","strong","","1","",""
"null","","null","html-keyboard-response","97","126034","0.0-5.0-0.46-0.46","erkuoqnk6aj4vt1","strength","46","learning","NA","RADIO","false","true","strong","","1","",""
"null","<p style='position: relative; margin-left: auto; margin-right: auto; text-align: right;font-size: 28px; line-height: 1.5'>RADIO</p>","null","html-keyboard-response","98","128036","0.0-5.0-0.46-1.46","erkuoqnk6aj4vt1","strength","47","learning","NA","RADIO","false","true","strong","","1","",""
"null","","null","html-keyboard-response","99","128538","0.0-5.0-0.47-0.47","erkuoqnk6aj4vt1","strength","47","learning","NA","LUNGE","false","true","strong","","1","",""
"null","<p style='position: relative; margin-left: auto; margin-right: auto; text-align: right;font-size: 28px; line-height: 1.5'>LUNGE</p>","null","html-keyboard-response","100","130540","0.0-5.0-0.47-1.47","erkuoqnk6aj4vt1","strength","48","learning","NA","LUNGE","false","true","strong","","1","",""
"null","","null","html-keyboard-response","101","131041","0.0-5.0-0.48-0.48","erkuoqnk6aj4vt1","strength","48","learning","NA","SEGEL","false","true","strong","","1","",""
"null","<p style='position: relative; margin-left: auto; margin-right: auto; text-align: right;font-size: 28px; line-height: 1.5'>SEGEL</p>","null","html-keyboard-response","102","133043","0.0-5.0-0.48-1.48","erkuoqnk6aj4vt1","strength","49","learning","NA","SEGEL","false","true","strong","","1","",""
"null","","null","html-keyboard-response","103","133545","0.0-5.0-0.49-0.49","erkuoqnk6aj4vt1","strength","49","learning","NA","SCHAF","true","true","weak","","1","",""
"null","<p style='position: relative; margin-left: auto; margin-right: auto; text-align: right;font-size: 28px; line-height: 1.5'>SCHAF</p>","null","html-keyboard-response","104","135548","0.0-5.0-0.49-1.49","erkuoqnk6aj4vt1","strength","50","learning","NA","SCHAF","true","true","weak","","1","",""
"8175","<p id=""Header"">Pause</p><p style=""margin-top: 20% max-width: 85%;"">Block 1/4 der Lernphase ist geschafft! Sie können an dieser Stelle eine kurze Pause machen.</p><p>Klicken Sie auf ""Weiter"", um den nächsten Block zu starten.</p>","0","html-button-response","105","143724","0.0-6.0","erkuoqnk6aj4vt1","strength","50","instr","NA","","","","","","","",""
"null","","null","html-keyboard-response","106","144226","0.0-7.0-0.0-0.0","erkuoqnk6aj4vt1","strength","50","learning","NA","VERLAUF","false","true","strong","","2","",""
"null","<p style='position: relative; margin-left: auto; margin-right: auto; text-align: right;font-size: 28px; line-height: 1.5'>VERLAUF</p>","null","html-keyboard-response","107","146230","0.0-7.0-0.0-1.0","erkuoqnk6aj4vt1","strength","51","learning","NA","VERLAUF","false","true","strong","","2","",""
"null","","null","html-keyboard-response","108","146736","0.0-7.0-0.1-0.1","erkuoqnk6aj4vt1","strength","51","learning","NA","VERMERK","true","true","strong","","2","",""
"null","<p style='position: relative; margin-left: auto; margin-right: auto; text-align: right;font-size: 28px; line-height: 1.5'>VERMERK</p>","null","html-keyboard-response","109","148740","0.0-7.0-0.1-1.1","erkuoqnk6aj4vt1","strength","52","learning","NA","VERMERK","true","true","strong","","2","",""
"null","","null","html-keyboard-response","110","149242","0.0-7.0-0.2-0.2","erkuoqnk6aj4vt1","strength","52","learning","NA","KABEL","false","true","strong","","2","",""
"null","<p style='position: relative; margin-left: auto; margin-right: auto; text-align: right;font-size: 28px; line-height: 1.5'>KABEL</p>","null","html-keyboard-response","111","151244","0.0-7.0-0.2-1.2","erkuoqnk6aj4vt1","strength","53","learning","NA","KABEL","false","true","strong","","2","",""
"null","","null","html-keyboard-response","112","151747","0.0-7.0-0.3-0.3","erkuoqnk6aj4vt1","strength","53","learning","NA","PILZ","true","true","weak","","2","",""
"null","<p style='position: relative; margin-left: auto; margin-right: auto; text-align: right;font-size: 28px; line-height: 1.5'>PILZ</p>","null","html-keyboard-response","113","153750","0.0-7.0-0.3-1.3","erkuoqnk6aj4vt1","strength","54","learning","NA","PILZ","true","true","weak","","2","",""
"null","","null","html-keyboard-response","114","154251","0.0-7.0-0.4-0.4","erkuoqnk6aj4vt1","strength","54","learning","NA","BÜRSTE","true","true","weak","","2","",""
"null","<p style='position: relative; margin-left: auto; margin-right: auto; text-align: right;font-size: 28px; line-height: 1.5'>BÜRSTE</p>","null","html-keyboard-response","115","156253","0.0-7.0-0.4-1.4","erkuoqnk6aj4vt1","strength","55","learning","NA","BÜRSTE","true","true","weak","","2","",""
"null","","null","html-keyboard-response","116","156755","0.0-7.0-0.5-0.5","erkuoqnk6aj4vt1","strength","55","learning","NA","RENTE","false","true","strong","","2","",""
"null","<p style='position: relative; margin-left: auto; margin-right: auto; text-align: right;font-size: 28px; line-height: 1.5'>RENTE</p>","null","html-keyboard-response","117","158757","0.0-7.0-0.5-1.5","erkuoqnk6aj4vt1","strength","56","learning","NA","RENTE","false","true","strong","","2","",""
"null","","null","html-keyboard-response","118","159261","0.0-7.0-0.6-0.6","erkuoqnk6aj4vt1","strength","56","learning","NA","KANAL","false","true","strong","","2","",""
"null","<p style='position: relative; margin-left: auto; margin-right: auto; text-align: right;font-size: 28px; line-height: 1.5'>KANAL</p>","null","html-keyboard-response","119","161264","0.0-7.0-0.6-1.6","erkuoqnk6aj4vt1","strength","57","learning","NA","KANAL","false","true","strong","","2","",""
"null","","null","html-keyboard-response","120","161765","0.0-7.0-0.7-0.7","erkuoqnk6aj4vt1","strength","57","learning","NA","STRUMPF","true","true","weak","","2","",""
"null","<p style='position: relative; margin-left: auto; margin-right: auto; text-align: right;font-size: 28px; line-height: 1.5'>STRUMPF</p>","null","html-keyboard-response","121","163767","0.0-7.0-0.7-1.7","erkuoqnk6aj4vt1","strength","58","learning","NA","STRUMPF","true","true","weak","","2","",""
"null","","null","html-keyboard-response","122","164269","0.0-7.0-0.8-0.8","erkuoqnk6aj4vt1","strength","58","learning","NA","STAMM","true","true","strong","","2","",""
"null","<p style='position: relative; margin-left: auto; margin-right: auto; text-align: right;font-size: 28px; line-height: 1.5'>STAMM</p>","null","html-keyboard-response","123","166270","0.0-7.0-0.8-1.8","erkuoqnk6aj4vt1","strength","59","learning","NA","STAMM","true","true","strong","","2","",""
"null","","null","html-keyboard-response","124","166771","0.0-7.0-0.9-0.9","erkuoqnk6aj4vt1","strength","59","learning","NA","KANAL","false","true","strong","","2","",""
"null","<p style='position: relative; margin-left: auto; margin-right: auto; text-align: right;font-size: 28px; line-height: 1.5'>KANAL</p>","null","html-keyboard-response","125","168772","0.0-7.0-0.9-1.9","erkuoqnk6aj4vt1","strength","60","learning","NA","KANAL","false","true","strong","","2","",""
"null","","null","html-keyboard-response","126","169273","0.0-7.0-0.10-0.10","erkuoqnk6aj4vt1","strength","60","learning","NA","TAGUNG","false","true","strong","","2","",""
"null","<p style='position: relative; margin-left: auto; margin-right: auto; text-align: right;font-size: 28px; line-height: 1.5'>TAGUNG</p>","null","html-keyboard-response","127","171274","0.0-7.0-0.10-1.10","erkuoqnk6aj4vt1","strength","61","learning","NA","TAGUNG","false","true","strong","","2","",""
"null","","null","html-keyboard-response","128","171775","0.0-7.0-0.11-0.11","erkuoqnk6aj4vt1","strength","61","learning","NA","SCHNUR","true","true","strong","","2","",""
"null","<p style='position: relative; margin-left: auto; margin-right: auto; text-align: right;font-size: 28px; line-height: 1.5'>SCHNUR</p>","null","html-keyboard-response","129","173776","0.0-7.0-0.11-1.11","erkuoqnk6aj4vt1","strength","62","learning","NA","SCHNUR","true","true","strong","","2","",""
"null","","null","html-keyboard-response","130","174278","0.0-7.0-0.12-0.12","erkuoqnk6aj4vt1","strength","62","learning","NA","EXEMPLAR","false","true","strong","","2","",""
"null","<p style='position: relative; margin-left: auto; margin-right: auto; text-align: right;font-size: 28px; line-height: 1.5'>EXEMPLAR</p>","null","html-keyboard-response","131","176279","0.0-7.0-0.12-1.12","erkuoqnk6aj4vt1","strength","63","learning","NA","EXEMPLAR","false","true","strong","","2","",""
"null","","null","html-keyboard-response","132","176781","0.0-7.0-0.13-0.13","erkuoqnk6aj4vt1","strength","63","learning","NA","EISEN","true","true","strong","","2","",""
"null","<p style='position: relative; margin-left: auto; margin-right: auto; text-align: right;font-size: 28px; line-height: 1.5'>EISEN</p>","null","html-keyboard-response","133","178783","0.0-7.0-0.13-1.13","erkuoqnk6aj4vt1","strength","64","learning","NA","EISEN","true","true","strong","","2","",""
"null","","null","html-keyboard-response","134","179284","0.0-7.0-0.14-0.14","erkuoqnk6aj4vt1","strength","64","learning","NA","TREPPE","true","true","weak","","2","",""
"null","<p style='position: relative; margin-left: auto; margin-right: auto; text-align: right;font-size: 28px; line-height: 1.5'>TREPPE</p>","null","html-keyboard-response","135","181285","0.0-7.0-0.14-1.14","erkuoqnk6aj4vt1","strength","65","learning","NA","TREPPE","true","true","weak","","2","",""
"null","","null","html-keyboard-response","136","181786","0.0-7.0-0.15-0.15","erkuoqnk6aj4vt1","strength","65","learning","NA","BERATUNG","false","true","strong","","2","",""
"null","<p style='position: relative; margin-left: auto; margin-right: auto; text-align: right;font-size: 28px; line-height: 1.5'>BERATUNG</p>","null","html-keyboard-response","137","183788","0.0-7.0-0.15-1.15","erkuoqnk6aj4vt1","strength","66","learning","NA","BERATUNG","false","true","strong","","2","",""
"null","","null","html-keyboard-response","138","184289","0.0-7.0-0.16-0.16","erkuoqnk6aj4vt1","strength","66","learning","NA","KNOCHEN","true","true","weak","","2","",""
"null","<p style='position: relative; margin-left: auto; margin-right: auto; text-align: right;font-size: 28px; line-height: 1.5'>KNOCHEN</p>","null","html-keyboard-response","139","186290","0.0-7.0-0.16-1.16","erkuoqnk6aj4vt1","strength","67","learning","NA","KNOCHEN","true","true","weak","","2","",""
"null","","null","html-keyboard-response","140","186792","0.0-7.0-0.17-0.17","erkuoqnk6aj4vt1","strength","67","learning","NA","STREIFEN","true","true","strong","","2","",""
"null","<p style='position: relative; margin-left: auto; margin-right: auto; text-align: right;font-size: 28px; line-height: 1.5'>STREIFEN</p>","null","html-keyboard-response","141","188794","0.0-7.0-0.17-1.17","erkuoqnk6aj4vt1","strength","68","learning","NA","STREIFEN","true","true","strong","","2","",""
"null","","null","html-keyboard-response","142","189296","0.0-7.0-0.18-0.18","erkuoqnk6aj4vt1","strength","68","learning","NA","PEDAL","true","true","strong","","2","",""
"null","<p style='position: relative; margin-left: auto; margin-right: auto; text-align: right;font-size: 28px; line-height: 1.5'>PEDAL</p>","null","html-keyboard-response","143","191297","0.0-7.0-0.18-1.18","erkuoqnk6aj4vt1","strength","69","learning","NA","PEDAL","true","true","strong","","2","",""
"null","","null","html-keyboard-response","144","191799","0.0-7.0-0.19-0.19","erkuoqnk6aj4vt1","strength","69","learning","NA","EISEN","false","true","strong","","2","",""
"null","<p style='position: relative; margin-left: auto; margin-right: auto; text-align: right;font-size: 28px; line-height: 1.5'>EISEN</p>","null","html-keyboard-response","145","193801","0.0-7.0-0.19-1.19","erkuoqnk6aj4vt1","strength","70","learning","NA","EISEN","false","true","strong","","2","",""
"null","","null","html-keyboard-response","146","194302","0.0-7.0-0.20-0.20","erkuoqnk6aj4vt1","strength","70","learning","NA","MAST","false","true","strong","","2","",""
"null","<p style='position: relative; margin-left: auto; margin-right: auto; text-align: right;font-size: 28px; line-height: 1.5'>MAST</p>","null","html-keyboard-response","147","196304","0.0-7.0-0.20-1.20","erkuoqnk6aj4vt1","strength","71","learning","NA","MAST","false","true","strong","","2","",""
"null","","null","html-keyboard-response","148","196805","0.0-7.0-0.21-0.21","erkuoqnk6aj4vt1","strength","71","learning","NA","EPOCHE","false","true","strong","","2","",""
"null","<p style='position: relative; margin-left: auto; margin-right: auto; text-align: right;font-size: 28px; line-height: 1.5'>EPOCHE</p>","null","html-keyboard-response","149","198806","0.0-7.0-0.21-1.21","erkuoqnk6aj4vt1","strength","72","learning","NA","EPOCHE","false","true","strong","","2","",""
"null","","null","html-keyboard-response","150","199306","0.0-7.0-0.22-0.22","erkuoqnk6aj4vt1","strength","72","learning","NA","WORT","false","true","strong","","2","",""
"null","<p style='position: relative; margin-left: auto; margin-right: auto; text-align: right;font-size: 28px; line-height: 1.5'>WORT</p>","null","html-keyboard-response","151","201307","0.0-7.0-0.22-1.22","erkuoqnk6aj4vt1","strength","73","learning","NA","WORT","false","true","strong","","2","",""
"null","","null","html-keyboard-response","152","201808","0.0-7.0-0.23-0.23","erkuoqnk6aj4vt1","strength","73","learning","NA","TROMPETE","true","true","weak","","2","",""
"null","<p style='position: relative; margin-left: auto; margin-right: auto; text-align: right;font-size: 28px; line-height: 1.5'>TROMPETE</p>","null","html-keyboard-response","153","203809","0.0-7.0-0.23-1.23","erkuoqnk6aj4vt1","strength","74","learning","NA","TROMPETE","true","true","weak","","2","",""
"null","","null","html-keyboard-response","154","204309","0.0-7.0-0.24-0.24","erkuoqnk6aj4vt1","strength","74","learning","NA","PEDAL","false","true","strong","","2","",""
"null","<p style='position: relative; margin-left: auto; margin-right: auto; text-align: right;font-size: 28px; line-height: 1.5'>PEDAL</p>","null","html-keyboard-response","155","206310","0.0-7.0-0.24-1.24","erkuoqnk6aj4vt1","strength","75","learning","NA","PEDAL","false","true","strong","","2","",""
"null","","null","html-keyboard-response","156","206812","0.0-7.0-0.25-0.25","erkuoqnk6aj4vt1","strength","75","learning","NA","STREIFEN","false","true","strong","","2","",""
"null","<p style='position: relative; margin-left: auto; margin-right: auto; text-align: right;font-size: 28px; line-height: 1.5'>STREIFEN</p>","null","html-keyboard-response","157","208813","0.0-7.0-0.25-1.25","erkuoqnk6aj4vt1","strength","76","learning","NA","STREIFEN","false","true","strong","","2","",""
"null","","null","html-keyboard-response","158","209314","0.0-7.0-0.26-0.26","erkuoqnk6aj4vt1","strength","76","learning","NA","VORHANG","false","true","strong","","2","",""
"null","<p style='position: relative; margin-left: auto; margin-right: auto; text-align: right;font-size: 28px; line-height: 1.5'>VORHANG</p>","null","html-keyboard-response","159","211316","0.0-7.0-0.26-1.26","erkuoqnk6aj4vt1","strength","77","learning","NA","VORHANG","false","true","strong","","2","",""
"null","","null","html-keyboard-response","160","211818","0.0-7.0-0.27-0.27","erkuoqnk6aj4vt1","strength","77","learning","NA","LACK","true","true","weak","","2","",""
"null","<p style='position: relative; margin-left: auto; margin-right: auto; text-align: right;font-size: 28px; line-height: 1.5'>LACK</p>","null","html-keyboard-response","161","213820","0.0-7.0-0.27-1.27","erkuoqnk6aj4vt1","strength","78","learning","NA","LACK","true","true","weak","","2","",""
"null","","null","html-keyboard-response","162","214321","0.0-7.0-0.28-0.28","erkuoqnk6aj4vt1","strength","78","learning","NA","BLUSE","true","true","weak","","2","",""
"null","<p style='position: relative; margin-left: auto; margin-right: auto; text-align: right;font-size: 28px; line-height: 1.5'>BLUSE</p>","null","html-keyboard-response","163","216323","0.0-7.0-0.28-1.28","erkuoqnk6aj4vt1","strength","79","learning","NA","BLUSE","true","true","weak","","2","",""
"null","","null","html-keyboard-response","164","216824","0.0-7.0-0.29-0.29","erkuoqnk6aj4vt1","strength","79","learning","NA","EXEMPLAR","true","true","strong","","2","",""
"null","<p style='position: relative; margin-left: auto; margin-right: auto; text-align: right;font-size: 28px; line-height: 1.5'>EXEMPLAR</p>","null","html-keyboard-response","165","218827","0.0-7.0-0.29-1.29","erkuoqnk6aj4vt1","strength","80","learning","NA","EXEMPLAR","true","true","strong","","2","",""
"null","","null","html-keyboard-response","166","219328","0.0-7.0-0.30-0.30","erkuoqnk6aj4vt1","strength","80","learning","NA","MOTORRAD","false","true","strong","","2","",""
"null","<p style='position: relative; margin-left: auto; margin-right: auto; text-align: right;font-size: 28px; line-height: 1.5'>MOTORRAD</p>","null","html-keyboard-response","167","221330","0.0-7.0-0.30-1.30","erkuoqnk6aj4vt1","strength","81","learning","NA","MOTORRAD","false","true","strong","","2","",""
"null","","null","html-keyboard-response","168","221832","0.0-7.0-0.31-0.31","erkuoqnk6aj4vt1","strength","81","learning","NA","HUHN","true","true","strong","","2","",""
"null","<p style='position: relative; margin-left: auto; margin-right: auto; text-align: right;font-size: 28px; line-height: 1.5'>HUHN</p>","null","html-keyboard-response","169","223834","0.0-7.0-0.31-1.31","erkuoqnk6aj4vt1","strength","82","learning","NA","HUHN","true","true","strong","","2","",""
"null","","null","html-keyboard-response","170","224336","0.0-7.0-0.32-0.32","erkuoqnk6aj4vt1","strength","82","learning","NA","RICHTER","true","true","strong","","2","",""
"null","<p style='position: relative; margin-left: auto; margin-right: auto; text-align: right;font-size: 28px; line-height: 1.5'>RICHTER</p>","null","html-keyboard-response","171","226338","0.0-7.0-0.32-1.32","erkuoqnk6aj4vt1","strength","83","learning","NA","RICHTER","true","true","strong","","2","",""
"null","","null","html-keyboard-response","172","226839","0.0-7.0-0.33-0.33","erkuoqnk6aj4vt1","strength","83","learning","NA","SKALA","true","true","strong","","2","",""
"null","<p style='position: relative; margin-left: auto; margin-right: auto; text-align: right;font-size: 28px; line-height: 1.5'>SKALA</p>","null","html-keyboard-response","173","228841","0.0-7.0-0.33-1.33","erkuoqnk6aj4vt1","strength","84","learning","NA","SKALA","true","true","strong","","2","",""
"null","","null","html-keyboard-response","174","229342","0.0-7.0-0.34-0.34","erkuoqnk6aj4vt1","strength","84","learning","NA","SEKRETÄR","true","true","weak","","2","",""
"null","<p style='position: relative; margin-left: auto; margin-right: auto; text-align: right;font-size: 28px; line-height: 1.5'>SEKRETÄR</p>","null","html-keyboard-response","175","231344","0.0-7.0-0.34-1.34","erkuoqnk6aj4vt1","strength","85","learning","NA","SEKRETÄR","true","true","weak","","2","",""
"null","","null","html-keyboard-response","176","231845","0.0-7.0-0.35-0.35","erkuoqnk6aj4vt1","strength","85","learning","NA","AUTOMAT","true","true","weak","","2","",""
"null","<p style='position: relative; margin-left: auto; margin-right: auto; text-align: right;font-size: 28px; line-height: 1.5'>AUTOMAT</p>","null","html-keyboard-response","177","233846","0.0-7.0-0.35-1.35","erkuoqnk6aj4vt1","strength","86","learning","NA","AUTOMAT","true","true","weak","","2","",""
"null","","null","html-keyboard-response","178","234348","0.0-7.0-0.36-0.36","erkuoqnk6aj4vt1","strength","86","learning","NA","ALLIANZ","true","true","weak","","2","",""
"null","<p style='position: relative; margin-left: auto; margin-right: auto; text-align: right;font-size: 28px; line-height: 1.5'>ALLIANZ</p>","null","html-keyboard-response","179","236349","0.0-7.0-0.36-1.36","erkuoqnk6aj4vt1","strength","87","learning","NA","ALLIANZ","true","true","weak","","2","",""
"null","","null","html-keyboard-response","180","236850","0.0-7.0-0.37-0.37","erkuoqnk6aj4vt1","strength","87","learning","NA","TASCHE","false","true","strong","","2","",""
"null","<p style='position: relative; margin-left: auto; margin-right: auto; text-align: right;font-size: 28px; line-height: 1.5'>TASCHE</p>","null","html-keyboard-response","181","238852","0.0-7.0-0.37-1.37","erkuoqnk6aj4vt1","strength","88","learning","NA","TASCHE","false","true","strong","","2","",""
"null","","null","html-keyboard-response","182","239354","0.0-7.0-0.38-0.38","erkuoqnk6aj4vt1","strength","88","learning","NA","ZWECK","true","true","weak","","2","",""
"null","<p style='position: relative; margin-left: auto; margin-right: auto; text-align: right;font-size: 28px; line-height: 1.5'>ZWECK</p>","null","html-keyboard-response","183","241355","0.0-7.0-0.38-1.38","erkuoqnk6aj4vt1","strength","89","learning","NA","ZWECK","true","true","weak","","2","",""
"null","","null","html-keyboard-response","184","241857","0.0-7.0-0.39-0.39","erkuoqnk6aj4vt1","strength","89","learning","NA","TAXI","false","true","strong","","2","",""
"null","<p style='position: relative; margin-left: auto; margin-right: auto; text-align: right;font-size: 28px; line-height: 1.5'>TAXI</p>","null","html-keyboard-response","185","243858","0.0-7.0-0.39-1.39","erkuoqnk6aj4vt1","strength","90","learning","NA","TAXI","false","true","strong","","2","",""
"null","","null","html-keyboard-response","186","244360","0.0-7.0-0.40-0.40","erkuoqnk6aj4vt1","strength","90","learning","NA","ABLAUF","true","true","strong","","2","",""
"null","<p style='position: relative; margin-left: auto; margin-right: auto; text-align: right;font-size: 28px; line-height: 1.5'>ABLAUF</p>","null","html-keyboard-response","187","246361","0.0-7.0-0.40-1.40","erkuoqnk6aj4vt1","strength","91","learning","NA","ABLAUF","true","true","strong","","2","",""
"null","","null","html-keyboard-response","188","246862","0.0-7.0-0.41-0.41","erkuoqnk6aj4vt1","strength","91","learning","NA","SEKTOR","false","true","strong","","2","",""
"null","<p style='position: relative; margin-left: auto; margin-right: auto; text-align: right;font-size: 28px; line-height: 1.5'>SEKTOR</p>","null","html-keyboard-response","189","248864","0.0-7.0-0.41-1.41","erkuoqnk6aj4vt1","strength","92","learning","NA","SEKTOR","false","true","strong","","2","",""
"null","","null","html-keyboard-response","190","249365","0.0-7.0-0.42-0.42","erkuoqnk6aj4vt1","strength","92","learning","NA","MINIMUM","true","true","weak","","2","",""
"null","<p style='position: relative; margin-left: auto; margin-right: auto; text-align: right;font-size: 28px; line-height: 1.5'>MINIMUM</p>","null","html-keyboard-response","191","251366","0.0-7.0-0.42-1.42","erkuoqnk6aj4vt1","strength","93","learning","NA","MINIMUM","true","true","weak","","2","",""
"null","","null","html-keyboard-response","192","251867","0.0-7.0-0.43-0.43","erkuoqnk6aj4vt1","strength","93","learning","NA","FASSUNG","true","true","weak","","2","",""
"null","<p style='position: relative; margin-left: auto; margin-right: auto; text-align: right;font-size: 28px; line-height: 1.5'>FASSUNG</p>","null","html-keyboard-response","193","253869","0.0-7.0-0.43-1.43","erkuoqnk6aj4vt1","strength","94","learning","NA","FASSUNG","true","true","weak","","2","",""
"null","","null","html-keyboard-response","194","254370","0.0-7.0-0.44-0.44","erkuoqnk6aj4vt1","strength","94","learning","NA","REIGEN","true","true","strong","","2","",""
"null","<p style='position: relative; margin-left: auto; margin-right: auto; text-align: right;font-size: 28px; line-height: 1.5'>REIGEN</p>","null","html-keyboard-response","195","256372","0.0-7.0-0.44-1.44","erkuoqnk6aj4vt1","strength","95","learning","NA","REIGEN","true","true","strong","","2","",""
"null","","null","html-keyboard-response","196","256874","0.0-7.0-0.45-0.45","erkuoqnk6aj4vt1","strength","95","learning","NA","BAUWERK","false","true","strong","","2","",""
"null","<p style='position: relative; margin-left: auto; margin-right: auto; text-align: right;font-size: 28px; line-height: 1.5'>BAUWERK</p>","null","html-keyboard-response","197","258876","0.0-7.0-0.45-1.45","erkuoqnk6aj4vt1","strength","96","learning","NA","BAUWERK","false","true","strong","","2","",""
"null","","null","html-keyboard-response","198","259377","0.0-7.0-0.46-0.46","erkuoqnk6aj4vt1","strength","96","learning","NA","EISEN","false","true","strong","","2","",""
"null","<p style='position: relative; margin-left: auto; margin-right: auto; text-align: right;font-size: 28px; line-height: 1.5'>EISEN</p>","null","html-keyboard-response","199","261380","0.0-7.0-0.46-1.46","erkuoqnk6aj4vt1","strength","97","learning","NA","EISEN","false","true","strong","","2","",""
"null","","null","html-keyboard-response","200","261882","0.0-7.0-0.47-0.47","erkuoqnk6aj4vt1","strength","97","learning","NA","PEDAL","false","true","strong","","2","",""
"null","<p style='position: relative; margin-left: auto; margin-right: auto; text-align: right;font-size: 28px; line-height: 1.5'>PEDAL</p>","null","html-keyboard-response","201","263884","0.0-7.0-0.47-1.47","erkuoqnk6aj4vt1","strength","98","learning","NA","PEDAL","false","true","strong","","2","",""
"null","","null","html-keyboard-response","202","264386","0.0-7.0-0.48-0.48","erkuoqnk6aj4vt1","strength","98","learning","NA","HERR","true","true","weak","","2","",""
"null","<p style='position: relative; margin-left: auto; margin-right: auto; text-align: right;font-size: 28px; line-height: 1.5'>HERR</p>","null","html-keyboard-response","203","266388","0.0-7.0-0.48-1.48","erkuoqnk6aj4vt1","strength","99","learning","NA","HERR","true","true","weak","","2","",""
"null","","null","html-keyboard-response","204","266890","0.0-7.0-0.49-0.49","erkuoqnk6aj4vt1","strength","99","learning","NA","HOSE","true","true","strong","","2","",""
"null","<p style='position: relative; margin-left: auto; margin-right: auto; text-align: right;font-size: 28px; line-height: 1.5'>HOSE</p>","null","html-keyboard-response","205","268893","0.0-7.0-0.49-1.49","erkuoqnk6aj4vt1","strength","100","learning","NA","HOSE","true","true","strong","","2","",""
"2225","<p id=""Header"">Pause</p><p style=""margin-top: 20% max-width: 85%;"">Block 2/4 der Lernphase ist geschafft! Sie können an dieser Stelle eine kurze Pause machen.</p><p>Klicken Sie auf ""Weiter"", um den nächsten Block zu starten.</p>","0","html-button-response","206","271120","0.0-8.0","erkuoqnk6aj4vt1","strength","100","instr","NA","","","","","","","",""
"null","","null","html-keyboard-response","207","271621","0.0-9.0-0.0-0.0","erkuoqnk6aj4vt1","strength","100","learning","NA","GANS","true","true","strong","","3","",""
"null","<p style='position: relative; margin-left: auto; margin-right: auto; text-align: right;font-size: 28px; line-height: 1.5'>GANS</p>","null","html-keyboard-response","208","273623","0.0-9.0-0.0-1.0","erkuoqnk6aj4vt1","strength","101","learning","NA","GANS","true","true","strong","","3","",""
"null","","null","html-keyboard-response","209","274125","0.0-9.0-0.1-0.1","erkuoqnk6aj4vt1","strength","101","learning","NA","EFFEKT","false","true","strong","","3","",""
"null","<p style='position: relative; margin-left: auto; margin-right: auto; text-align: right;font-size: 28px; line-height: 1.5'>EFFEKT</p>","null","html-keyboard-response","210","276127","0.0-9.0-0.1-1.1","erkuoqnk6aj4vt1","strength","102","learning","NA","EFFEKT","false","true","strong","","3","",""
"null","","null","html-keyboard-response","211","276628","0.0-9.0-0.2-0.2","erkuoqnk6aj4vt1","strength","102","learning","NA","SAMMLUNG","false","true","strong","","3","",""
"null","<p style='position: relative; margin-left: auto; margin-right: auto; text-align: right;font-size: 28px; line-height: 1.5'>SAMMLUNG</p>","null","html-keyboard-response","212","278630","0.0-9.0-0.2-1.2","erkuoqnk6aj4vt1","strength","103","learning","NA","SAMMLUNG","false","true","strong","","3","",""
"null","","null","html-keyboard-response","213","279131","0.0-9.0-0.3-0.3","erkuoqnk6aj4vt1","strength","103","learning","NA","SEKTOR","false","true","strong","","3","",""
"null","<p style='position: relative; margin-left: auto; margin-right: auto; text-align: right;font-size: 28px; line-height: 1.5'>SEKTOR</p>","null","html-keyboard-response","214","281132","0.0-9.0-0.3-1.3","erkuoqnk6aj4vt1","strength","104","learning","NA","SEKTOR","false","true","strong","","3","",""
"null","","null","html-keyboard-response","215","281634","0.0-9.0-0.4-0.4","erkuoqnk6aj4vt1","strength","104","learning","NA","WORT","false","true","strong","","3","",""
"null","<p style='position: relative; margin-left: auto; margin-right: auto; text-align: right;font-size: 28px; line-height: 1.5'>WORT</p>","null","html-keyboard-response","216","283635","0.0-9.0-0.4-1.4","erkuoqnk6aj4vt1","strength","105","learning","NA","WORT","false","true","strong","","3","",""
"null","","null","html-keyboard-response","217","284137","0.0-9.0-0.5-0.5","erkuoqnk6aj4vt1","strength","105","learning","NA","DORF","true","true","weak","","3","",""
"null","<p style='position: relative; margin-left: auto; margin-right: auto; text-align: right;font-size: 28px; line-height: 1.5'>DORF</p>","null","html-keyboard-response","218","286138","0.0-9.0-0.5-1.5","erkuoqnk6aj4vt1","strength","106","learning","NA","DORF","true","true","weak","","3","",""
"null","","null","html-keyboard-response","219","286640","0.0-9.0-0.6-0.6","erkuoqnk6aj4vt1","strength","106","learning","NA","PLATTE","true","true","weak","","3","",""
"null","<p style='position: relative; margin-left: auto; margin-right: auto; text-align: right;font-size: 28px; line-height: 1.5'>PLATTE</p>","null","html-keyboard-response","220","288642","0.0-9.0-0.6-1.6","erkuoqnk6aj4vt1","strength","107","learning","NA","PLATTE","true","true","weak","","3","",""
"null","","null","html-keyboard-response","221","289143","0.0-9.0-0.7-0.7","erkuoqnk6aj4vt1","strength","107","learning","NA","TAXI","false","true","strong","","3","",""
"null","<p style='position: relative; margin-left: auto; margin-right: auto; text-align: right;font-size: 28px; line-height: 1.5'>TAXI</p>","null","html-keyboard-response","222","291144","0.0-9.0-0.7-1.7","erkuoqnk6aj4vt1","strength","108","learning","NA","TAXI","false","true","strong","","3","",""
"null","","null","html-keyboard-response","223","291646","0.0-9.0-0.8-0.8","erkuoqnk6aj4vt1","strength","108","learning","NA","KAHN","false","true","strong","","3","",""
"null","<p style='position: relative; margin-left: auto; margin-right: auto; text-align: right;font-size: 28px; line-height: 1.5'>KAHN</p>","null","html-keyboard-response","224","293648","0.0-9.0-0.8-1.8","erkuoqnk6aj4vt1","strength","109","learning","NA","KAHN","false","true","strong","","3","",""
"null","","null","html-keyboard-response","225","294150","0.0-9.0-0.9-0.9","erkuoqnk6aj4vt1","strength","109","learning","NA","AUSDRUCK","true","true","weak","","3","",""
"null","<p style='position: relative; margin-left: auto; margin-right: auto; text-align: right;font-size: 28px; line-height: 1.5'>AUSDRUCK</p>","null","html-keyboard-response","226","296151","0.0-9.0-0.9-1.9","erkuoqnk6aj4vt1","strength","110","learning","NA","AUSDRUCK","true","true","weak","","3","",""
"null","","null","html-keyboard-response","227","296653","0.0-9.0-0.10-0.10","erkuoqnk6aj4vt1","strength","110","learning","NA","DICHTER","false","true","strong","","3","",""
"null","<p style='position: relative; margin-left: auto; margin-right: auto; text-align: right;font-size: 28px; line-height: 1.5'>DICHTER</p>","null","html-keyboard-response","228","298655","0.0-9.0-0.10-1.10","erkuoqnk6aj4vt1","strength","111","learning","NA","DICHTER","false","true","strong","","3","",""
"null","","null","html-keyboard-response","229","299156","0.0-9.0-0.11-0.11","erkuoqnk6aj4vt1","strength","111","learning","NA","STROPHE","true","true","weak","","3","",""
"null","<p style='position: relative; margin-left: auto; margin-right: auto; text-align: right;font-size: 28px; line-height: 1.5'>STROPHE</p>","null","html-keyboard-response","230","301158","0.0-9.0-0.11-1.11","erkuoqnk6aj4vt1","strength","112","learning","NA","STROPHE","true","true","weak","","3","",""
"null","","null","html-keyboard-response","231","301659","0.0-9.0-0.12-0.12","erkuoqnk6aj4vt1","strength","112","learning","NA","KERN","true","true","weak","","3","",""
"null","<p style='position: relative; margin-left: auto; margin-right: auto; text-align: right;font-size: 28px; line-height: 1.5'>KERN</p>","null","html-keyboard-response","232","303661","0.0-9.0-0.12-1.12","erkuoqnk6aj4vt1","strength","113","learning","NA","KERN","true","true","weak","","3","",""
"null","","null","html-keyboard-response","233","304163","0.0-9.0-0.13-0.13","erkuoqnk6aj4vt1","strength","113","learning","NA","ABLAUF","false","true","strong","","3","",""
"null","<p style='position: relative; margin-left: auto; margin-right: auto; text-align: right;font-size: 28px; line-height: 1.5'>ABLAUF</p>","null","html-keyboard-response","234","306165","0.0-9.0-0.13-1.13","erkuoqnk6aj4vt1","strength","114","learning","NA","ABLAUF","false","true","strong","","3","",""
"null","","null","html-keyboard-response","235","306666","0.0-9.0-0.14-0.14","erkuoqnk6aj4vt1","strength","114","learning","NA","FORMAT","true","true","strong","","3","",""
"null","<p style='position: relative; margin-left: auto; margin-right: auto; text-align: right;font-size: 28px; line-height: 1.5'>FORMAT</p>","null","html-keyboard-response","236","308668","0.0-9.0-0.14-1.14","erkuoqnk6aj4vt1","strength","115","learning","NA","FORMAT","true","true","strong","","3","",""
"null","","null","html-keyboard-response","237","309170","0.0-9.0-0.15-0.15","erkuoqnk6aj4vt1","strength","115","learning","NA","DAMM","false","true","strong","","3","",""
"null","<p style='position: relative; margin-left: auto; margin-right: auto; text-align: right;font-size: 28px; line-height: 1.5'>DAMM</p>","null","html-keyboard-response","238","311172","0.0-9.0-0.15-1.15","erkuoqnk6aj4vt1","strength","116","learning","NA","DAMM","false","true","strong","","3","",""
"null","","null","html-keyboard-response","239","311673","0.0-9.0-0.16-0.16","erkuoqnk6aj4vt1","strength","116","learning","NA","MAST","true","true","strong","","3","",""
"null","<p style='position: relative; margin-left: auto; margin-right: auto; text-align: right;font-size: 28px; line-height: 1.5'>MAST</p>","null","html-keyboard-response","240","313676","0.0-9.0-0.16-1.16","erkuoqnk6aj4vt1","strength","117","learning","NA","MAST","true","true","strong","","3","",""
"null","","null","html-keyboard-response","241","314178","0.0-9.0-0.17-0.17","erkuoqnk6aj4vt1","strength","117","learning","NA","MOTORRAD","false","true","strong","","3","",""
"null","<p style='position: relative; margin-left: auto; margin-right: auto; text-align: right;font-size: 28px; line-height: 1.5'>MOTORRAD</p>","null","html-keyboard-response","242","316180","0.0-9.0-0.17-1.17","erkuoqnk6aj4vt1","strength","118","learning","NA","MOTORRAD","false","true","strong","","3","",""
"null","","null","html-keyboard-response","243","316682","0.0-9.0-0.18-0.18","erkuoqnk6aj4vt1","strength","118","learning","NA","KABEL","false","true","strong","","3","",""
"null","<p style='position: relative; margin-left: auto; margin-right: auto; text-align: right;font-size: 28px; line-height: 1.5'>KABEL</p>","null","html-keyboard-response","244","318684","0.0-9.0-0.18-1.18","erkuoqnk6aj4vt1","strength","119","learning","NA","KABEL","false","true","strong","","3","",""
"null","","null","html-keyboard-response","245","319187","0.0-9.0-0.19-0.19","erkuoqnk6aj4vt1","strength","119","learning","NA","SCHMIED","true","true","weak","","3","",""
"null","<p style='position: relative; margin-left: auto; margin-right: auto; text-align: right;font-size: 28px; line-height: 1.5'>SCHMIED</p>","null","html-keyboard-response","246","321189","0.0-9.0-0.19-1.19","erkuoqnk6aj4vt1","strength","120","learning","NA","SCHMIED","true","true","weak","","3","",""
"null","","null","html-keyboard-response","247","321691","0.0-9.0-0.20-0.20","erkuoqnk6aj4vt1","strength","120","learning","NA","KABEL","true","true","strong","","3","",""
"null","<p style='position: relative; margin-left: auto; margin-right: auto; text-align: right;font-size: 28px; line-height: 1.5'>KABEL</p>","null","html-keyboard-response","248","323693","0.0-9.0-0.20-1.20","erkuoqnk6aj4vt1","strength","121","learning","NA","KABEL","true","true","strong","","3","",""
"null","","null","html-keyboard-response","249","324195","0.0-9.0-0.21-0.21","erkuoqnk6aj4vt1","strength","121","learning","NA","EULE","true","true","weak","","3","",""
"null","<p style='position: relative; margin-left: auto; margin-right: auto; text-align: right;font-size: 28px; line-height: 1.5'>EULE</p>","null","html-keyboard-response","250","326198","0.0-9.0-0.21-1.21","erkuoqnk6aj4vt1","strength","122","learning","NA","EULE","true","true","weak","","3","",""
"null","","null","html-keyboard-response","251","326700","0.0-9.0-0.22-0.22","erkuoqnk6aj4vt1","strength","122","learning","NA","SKALA","false","true","strong","","3","",""
"null","<p style='position: relative; margin-left: auto; margin-right: auto; text-align: right;font-size: 28px; line-height: 1.5'>SKALA</p>","null","html-keyboard-response","252","328702","0.0-9.0-0.22-1.22","erkuoqnk6aj4vt1","strength","123","learning","NA","SKALA","false","true","strong","","3","",""
"null","","null","html-keyboard-response","253","329203","0.0-9.0-0.23-0.23","erkuoqnk6aj4vt1","strength","123","learning","NA","RICHTER","false","true","strong","","3","",""
"null","<p style='position: relative; margin-left: auto; margin-right: auto; text-align: right;font-size: 28px; line-height: 1.5'>RICHTER</p>","null","html-keyboard-response","254","331205","0.0-9.0-0.23-1.23","erkuoqnk6aj4vt1","strength","124","learning","NA","RICHTER","false","true","strong","","3","",""
"null","","null","html-keyboard-response","255","331707","0.0-9.0-0.24-0.24","erkuoqnk6aj4vt1","strength","124","learning","NA","SUPPE","true","true","weak","","3","",""
"null","<p style='position: relative; margin-left: auto; margin-right: auto; text-align: right;font-size: 28px; line-height: 1.5'>SUPPE</p>","null","html-keyboard-response","256","333709","0.0-9.0-0.24-1.24","erkuoqnk6aj4vt1","strength","125","learning","NA","SUPPE","true","true","weak","","3","",""
"null","","null","html-keyboard-response","257","334209","0.0-9.0-0.25-0.25","erkuoqnk6aj4vt1","strength","125","learning","NA","SCHUH","true","true","weak","","3","",""
"null","<p style='position: relative; margin-left: auto; margin-right: auto; text-align: right;font-size: 28px; line-height: 1.5'>SCHUH</p>","null","html-keyboard-response","258","336211","0.0-9.0-0.25-1.25","erkuoqnk6aj4vt1","strength","126","learning","NA","SCHUH","true","true","weak","","3","",""
"null","","null","html-keyboard-response","259","336713","0.0-9.0-0.26-0.26","erkuoqnk6aj4vt1","strength","126","learning","NA","EPOCHE","true","true","strong","","3","",""
"null","<p style='position: relative; margin-left: auto; margin-right: auto; text-align: right;font-size: 28px; line-height: 1.5'>EPOCHE</p>","null","html-keyboard-response","260","338715","0.0-9.0-0.26-1.26","erkuoqnk6aj4vt1","strength","127","learning","NA","EPOCHE","true","true","strong","","3","",""
"null","","null","html-keyboard-response","261","339216","0.0-9.0-0.27-0.27","erkuoqnk6aj4vt1","strength","127","learning","NA","KLAMMER","true","true","weak","","3","",""
"null","<p style='position: relative; margin-left: auto; margin-right: auto; text-align: right;font-size: 28px; line-height: 1.5'>KLAMMER</p>","null","html-keyboard-response","262","341218","0.0-9.0-0.27-1.27","erkuoqnk6aj4vt1","strength","128","learning","NA","KLAMMER","true","true","weak","","3","",""
"null","","null","html-keyboard-response","263","341719","0.0-9.0-0.28-0.28","erkuoqnk6aj4vt1","strength","128","learning","NA","HOSE","false","true","strong","","3","",""
"null","<p style='position: relative; margin-left: auto; margin-right: auto; text-align: right;font-size: 28px; line-height: 1.5'>HOSE</p>","null","html-keyboard-response","264","343720","0.0-9.0-0.28-1.28","erkuoqnk6aj4vt1","strength","129","learning","NA","HOSE","false","true","strong","","3","",""
"null","","null","html-keyboard-response","265","344221","0.0-9.0-0.29-0.29","erkuoqnk6aj4vt1","strength","129","learning","NA","ROSINE","true","true","weak","","3","",""
"null","<p style='position: relative; margin-left: auto; margin-right: auto; text-align: right;font-size: 28px; line-height: 1.5'>ROSINE</p>","null","html-keyboard-response","266","346222","0.0-9.0-0.29-1.29","erkuoqnk6aj4vt1","strength","130","learning","NA","ROSINE","true","true","weak","","3","",""
"null","","null","html-keyboard-response","267","346723","0.0-9.0-0.30-0.30","erkuoqnk6aj4vt1","strength","130","learning","NA","STAMM","false","true","strong","","3","",""
"null","<p style='position: relative; margin-left: auto; margin-right: auto; text-align: right;font-size: 28px; line-height: 1.5'>STAMM</p>","null","html-keyboard-response","268","348724","0.0-9.0-0.30-1.30","erkuoqnk6aj4vt1","strength","131","learning","NA","STAMM","false","true","strong","","3","",""
"null","","null","html-keyboard-response","269","349225","0.0-9.0-0.31-0.31","erkuoqnk6aj4vt1","strength","131","learning","NA","SKALA","false","true","strong","","3","",""
"null","<p style='position: relative; margin-left: auto; margin-right: auto; text-align: right;font-size: 28px; line-height: 1.5'>SKALA</p>","null","html-keyboard-response","270","351226","0.0-9.0-0.31-1.31","erkuoqnk6aj4vt1","strength","132","learning","NA","SKALA","false","true","strong","","3","",""
"null","","null","html-keyboard-response","271","351728","0.0-9.0-0.32-0.32","erkuoqnk6aj4vt1","strength","132","learning","NA","BART","true","true","weak","","3","",""
"null","<p style='position: relative; margin-left: auto; margin-right: auto; text-align: right;font-size: 28px; line-height: 1.5'>BART</p>","null","html-keyboard-response","272","353730","0.0-9.0-0.32-1.32","erkuoqnk6aj4vt1","strength","133","learning","NA","BART","true","true","weak","","3","",""
"null","","null","html-keyboard-response","273","354232","0.0-9.0-0.33-0.33","erkuoqnk6aj4vt1","strength","133","learning","NA","MOTORRAD","true","true","strong","","3","",""
"null","<p style='position: relative; margin-left: auto; margin-right: auto; text-align: right;font-size: 28px; line-height: 1.5'>MOTORRAD</p>","null","html-keyboard-response","274","356234","0.0-9.0-0.33-1.33","erkuoqnk6aj4vt1","strength","134","learning","NA","MOTORRAD","true","true","strong","","3","",""
"null","","null","html-keyboard-response","275","356735","0.0-9.0-0.34-0.34","erkuoqnk6aj4vt1","strength","134","learning","NA","BAUWERK","false","true","strong","","3","",""
"null","<p style='position: relative; margin-left: auto; margin-right: auto; text-align: right;font-size: 28px; line-height: 1.5'>BAUWERK</p>","null","html-keyboard-response","276","358737","0.0-9.0-0.34-1.34","erkuoqnk6aj4vt1","strength","135","learning","NA","BAUWERK","false","true","strong","","3","",""
"null","","null","html-keyboard-response","277","359239","0.0-9.0-0.35-0.35","erkuoqnk6aj4vt1","strength","135","learning","NA","FORMAT","false","true","strong","","3","",""
"null","<p style='position: relative; margin-left: auto; margin-right: auto; text-align: right;font-size: 28px; line-height: 1.5'>FORMAT</p>","null","html-keyboard-response","278","361240","0.0-9.0-0.35-1.35","erkuoqnk6aj4vt1","strength","136","learning","NA","FORMAT","false","true","strong","","3","",""
"null","","null","html-keyboard-response","279","361742","0.0-9.0-0.36-0.36","erkuoqnk6aj4vt1","strength","136","learning","NA","SEITE","true","true","weak","","3","",""
"null","<p style='position: relative; margin-left: auto; margin-right: auto; text-align: right;font-size: 28px; line-height: 1.5'>SEITE</p>","null","html-keyboard-response","280","363745","0.0-9.0-0.36-1.36","erkuoqnk6aj4vt1","strength","137","learning","NA","SEITE","true","true","weak","","3","",""
"null","","null","html-keyboard-response","281","364247","0.0-9.0-0.37-0.37","erkuoqnk6aj4vt1","strength","137","learning","NA","PUNKT","true","true","weak","","3","",""
"null","<p style='position: relative; margin-left: auto; margin-right: auto; text-align: right;font-size: 28px; line-height: 1.5'>PUNKT</p>","null","html-keyboard-response","282","366249","0.0-9.0-0.37-1.37","erkuoqnk6aj4vt1","strength","138","learning","NA","PUNKT","true","true","weak","","3","",""
"null","","null","html-keyboard-response","283","366751","0.0-9.0-0.38-0.38","erkuoqnk6aj4vt1","strength","138","learning","NA","STATION","false","true","strong","","3","",""
"null","<p style='position: relative; margin-left: auto; margin-right: auto; text-align: right;font-size: 28px; line-height: 1.5'>STATION</p>","null","html-keyboard-response","284","368752","0.0-9.0-0.38-1.38","erkuoqnk6aj4vt1","strength","139","learning","NA","STATION","false","true","strong","","3","",""
"null","","null","html-keyboard-response","285","369254","0.0-9.0-0.39-0.39","erkuoqnk6aj4vt1","strength","139","learning","NA","TÜTE","true","true","weak","","3","",""
"null","<p style='position: relative; margin-left: auto; margin-right: auto; text-align: right;font-size: 28px; line-height: 1.5'>TÜTE</p>","null","html-keyboard-response","286","371256","0.0-9.0-0.39-1.39","erkuoqnk6aj4vt1","strength","140","learning","NA","TÜTE","true","true","weak","","3","",""
"null","","null","html-keyboard-response","287","371757","0.0-9.0-0.40-0.40","erkuoqnk6aj4vt1","strength","140","learning","NA","LUNGE","false","true","strong","","3","",""
"null","<p style='position: relative; margin-left: auto; margin-right: auto; text-align: right;font-size: 28px; line-height: 1.5'>LUNGE</p>","null","html-keyboard-response","288","373760","0.0-9.0-0.40-1.40","erkuoqnk6aj4vt1","strength","141","learning","NA","LUNGE","false","true","strong","","3","",""
"null","","null","html-keyboard-response","289","374261","0.0-9.0-0.41-0.41","erkuoqnk6aj4vt1","strength","141","learning","NA","NUMMER","false","true","strong","","3","",""
"null","<p style='position: relative; margin-left: auto; margin-right: auto; text-align: right;font-size: 28px; line-height: 1.5'>NUMMER</p>","null","html-keyboard-response","290","376263","0.0-9.0-0.41-1.41","erkuoqnk6aj4vt1","strength","142","learning","NA","NUMMER","false","true","strong","","3","",""
"null","","null","html-keyboard-response","291","376765","0.0-9.0-0.42-0.42","erkuoqnk6aj4vt1","strength","142","learning","NA","STÜCK","false","true","strong","","3","",""
"null","<p style='position: relative; margin-left: auto; margin-right: auto; text-align: right;font-size: 28px; line-height: 1.5'>STÜCK</p>","null","html-keyboard-response","292","378767","0.0-9.0-0.42-1.42","erkuoqnk6aj4vt1","strength","143","learning","NA","STÜCK","false","true","strong","","3","",""
"null","","null","html-keyboard-response","293","379269","0.0-9.0-0.43-0.43","erkuoqnk6aj4vt1","strength","143","learning","NA","SÄULE","true","true","weak","","3","",""
"null","<p style='position: relative; margin-left: auto; margin-right: auto; text-align: right;font-size: 28px; line-height: 1.5'>SÄULE</p>","null","html-keyboard-response","294","381272","0.0-9.0-0.43-1.43","erkuoqnk6aj4vt1","strength","144","learning","NA","SÄULE","true","true","weak","","3","",""
"null","","null","html-keyboard-response","295","381773","0.0-9.0-0.44-0.44","erkuoqnk6aj4vt1","strength","144","learning","NA","KAHN","false","true","strong","","3","",""
"null","<p style='position: relative; margin-left: auto; margin-right: auto; text-align: right;font-size: 28px; line-height: 1.5'>KAHN</p>","null","html-keyboard-response","296","383775","0.0-9.0-0.44-1.44","erkuoqnk6aj4vt1","strength","145","learning","NA","KAHN","false","true","strong","","3","",""
"null","","null","html-keyboard-response","297","384277","0.0-9.0-0.45-0.45","erkuoqnk6aj4vt1","strength","145","learning","NA","RENTE","false","true","strong","","3","",""
"null","<p style='position: relative; margin-left: auto; margin-right: auto; text-align: right;font-size: 28px; line-height: 1.5'>RENTE</p>","null","html-keyboard-response","298","386280","0.0-9.0-0.45-1.45","erkuoqnk6aj4vt1","strength","146","learning","NA","RENTE","false","true","strong","","3","",""
"null","","null","html-keyboard-response","299","386782","0.0-9.0-0.46-0.46","erkuoqnk6aj4vt1","strength","146","learning","NA","BERATUNG","false","true","strong","","3","",""
"null","<p style='position: relative; margin-left: auto; margin-right: auto; text-align: right;font-size: 28px; line-height: 1.5'>BERATUNG</p>","null","html-keyboard-response","300","388784","0.0-9.0-0.46-1.46","erkuoqnk6aj4vt1","strength","147","learning","NA","BERATUNG","false","true","strong","","3","",""
"null","","null","html-keyboard-response","301","389286","0.0-9.0-0.47-0.47","erkuoqnk6aj4vt1","strength","147","learning","NA","GANS","false","true","strong","","3","",""
"null","<p style='position: relative; margin-left: auto; margin-right: auto; text-align: right;font-size: 28px; line-height: 1.5'>GANS</p>","null","html-keyboard-response","302","391287","0.0-9.0-0.47-1.47","erkuoqnk6aj4vt1","strength","148","learning","NA","GANS","false","true","strong","","3","",""
"null","","null","html-keyboard-response","303","391789","0.0-9.0-0.48-0.48","erkuoqnk6aj4vt1","strength","148","learning","NA","ABLAUF","false","true","strong","","3","",""
"null","<p style='position: relative; margin-left: auto; margin-right: auto; text-align: right;font-size: 28px; line-height: 1.5'>ABLAUF</p>","null","html-keyboard-response","304","393792","0.0-9.0-0.48-1.48","erkuoqnk6aj4vt1","strength","149","learning","NA","ABLAUF","false","true","strong","","3","",""
"null","","null","html-keyboard-response","305","394294","0.0-9.0-0.49-0.49","erkuoqnk6aj4vt1","strength","149","learning","NA","DAMPF","true","true","strong","","3","",""
"null","<p style='position: relative; margin-left: auto; margin-right: auto; text-align: right;font-size: 28px; line-height: 1.5'>DAMPF</p>","null","html-keyboard-response","306","396296","0.0-9.0-0.49-1.49","erkuoqnk6aj4vt1","strength","150","learning","NA","DAMPF","true","true","strong","","3","",""
"34535","<p id=""Header"">Pause</p><p style=""margin-top: 20% max-width: 85%;"">Block 3/4 der Lernphase ist geschafft! Sie können an dieser Stelle eine kurze Pause machen.</p><p>Klicken Sie auf ""Weiter"", um den nächsten Block zu starten.</p>","0","html-button-response","307","430832","0.0-10.0","erkuoqnk6aj4vt1","strength","150","instr","NA","","","","","","","",""
"null","","null","html-keyboard-response","308","431333","0.0-11.0-0.0-0.0","erkuoqnk6aj4vt1","strength","150","learning","NA","VORHANG","true","true","strong","","4","",""
"null","<p style='position: relative; margin-left: auto; margin-right: auto; text-align: right;font-size: 28px; line-height: 1.5'>VORHANG</p>","null","html-keyboard-response","309","433335","0.0-11.0-0.0-1.0","erkuoqnk6aj4vt1","strength","151","learning","NA","VORHANG","true","true","strong","","4","",""
"null","","null","html-keyboard-response","310","433836","0.0-11.0-0.1-0.1","erkuoqnk6aj4vt1","strength","151","learning","NA","DATUM","false","true","strong","","4","",""
"null","<p style='position: relative; margin-left: auto; margin-right: auto; text-align: right;font-size: 28px; line-height: 1.5'>DATUM</p>","null","html-keyboard-response","311","435838","0.0-11.0-0.1-1.1","erkuoqnk6aj4vt1","strength","152","learning","NA","DATUM","false","true","strong","","4","",""
"null","","null","html-keyboard-response","312","436340","0.0-11.0-0.2-0.2","erkuoqnk6aj4vt1","strength","152","learning","NA","SACHE","true","true","weak","","4","",""
"null","<p style='position: relative; margin-left: auto; margin-right: auto; text-align: right;font-size: 28px; line-height: 1.5'>SACHE</p>","null","html-keyboard-response","313","438341","0.0-11.0-0.2-1.2","erkuoqnk6aj4vt1","strength","153","learning","NA","SACHE","true","true","weak","","4","",""
"null","","null","html-keyboard-response","314","438843","0.0-11.0-0.3-0.3","erkuoqnk6aj4vt1","strength","153","learning","NA","STAMM","false","true","strong","","4","",""
"null","<p style='position: relative; margin-left: auto; margin-right: auto; text-align: right;font-size: 28px; line-height: 1.5'>STAMM</p>","null","html-keyboard-response","315","440845","0.0-11.0-0.3-1.3","erkuoqnk6aj4vt1","strength","154","learning","NA","STAMM","false","true","strong","","4","",""
"null","","null","html-keyboard-response","316","441347","0.0-11.0-0.4-0.4","erkuoqnk6aj4vt1","strength","154","learning","NA","SCHNUR","false","true","strong","","4","",""
"null","<p style='position: relative; margin-left: auto; margin-right: auto; text-align: right;font-size: 28px; line-height: 1.5'>SCHNUR</p>","null","html-keyboard-response","317","443349","0.0-11.0-0.4-1.4","erkuoqnk6aj4vt1","strength","155","learning","NA","SCHNUR","false","true","strong","","4","",""
"null","","null","html-keyboard-response","318","443852","0.0-11.0-0.5-0.5","erkuoqnk6aj4vt1","strength","155","learning","NA","STATION","true","true","strong","","4","",""
"null","<p style='position: relative; margin-left: auto; margin-right: auto; text-align: right;font-size: 28px; line-height: 1.5'>STATION</p>","null","html-keyboard-response","319","445854","0.0-11.0-0.5-1.5","erkuoqnk6aj4vt1","strength","156","learning","NA","STATION","true","true","strong","","4","",""
"null","","null","html-keyboard-response","320","446357","0.0-11.0-0.6-0.6","erkuoqnk6aj4vt1","strength","156","learning","NA","TEICH","true","true","strong","","4","",""
"null","<p style='position: relative; margin-left: auto; margin-right: auto; text-align: right;font-size: 28px; line-height: 1.5'>TEICH</p>","null","html-keyboard-response","321","448359","0.0-11.0-0.6-1.6","erkuoqnk6aj4vt1","strength","157","learning","NA","TEICH","true","true","strong","","4","",""
"null","","null","html-keyboard-response","322","448861","0.0-11.0-0.7-0.7","erkuoqnk6aj4vt1","strength","157","learning","NA","RADIO","true","true","strong","","4","",""
"null","<p style='position: relative; margin-left: auto; margin-right: auto; text-align: right;font-size: 28px; line-height: 1.5'>RADIO</p>","null","html-keyboard-response","323","450863","0.0-11.0-0.7-1.7","erkuoqnk6aj4vt1","strength","158","learning","NA","RADIO","true","true","strong","","4","",""
"null","","null","html-keyboard-response","324","451365","0.0-11.0-0.8-0.8","erkuoqnk6aj4vt1","strength","158","learning","NA","HOSE","false","true","strong","","4","",""
"null","<p style='position: relative; margin-left: auto; margin-right: auto; text-align: right;font-size: 28px; line-height: 1.5'>HOSE</p>","null","html-keyboard-response","325","453366","0.0-11.0-0.8-1.8","erkuoqnk6aj4vt1","strength","159","learning","NA","HOSE","false","true","strong","","4","",""
"null","","null","html-keyboard-response","326","453868","0.0-11.0-0.9-0.9","erkuoqnk6aj4vt1","strength","159","learning","NA","GANS","false","true","strong","","4","",""
"null","<p style='position: relative; margin-left: auto; margin-right: auto; text-align: right;font-size: 28px; line-height: 1.5'>GANS</p>","null","html-keyboard-response","327","455871","0.0-11.0-0.9-1.9","erkuoqnk6aj4vt1","strength","160","learning","NA","GANS","false","true","strong","","4","",""
"null","","null","html-keyboard-response","328","456373","0.0-11.0-0.10-0.10","erkuoqnk6aj4vt1","strength","160","learning","NA","BLEI","true","true","strong","","4","",""
"null","<p style='position: relative; margin-left: auto; margin-right: auto; text-align: right;font-size: 28px; line-height: 1.5'>BLEI</p>","null","html-keyboard-response","329","458374","0.0-11.0-0.10-1.10","erkuoqnk6aj4vt1","strength","161","learning","NA","BLEI","true","true","strong","","4","",""
"null","","null","html-keyboard-response","330","458875","0.0-11.0-0.11-0.11","erkuoqnk6aj4vt1","strength","161","learning","NA","KUPPE","true","true","weak","","4","",""
"null","<p style='position: relative; margin-left: auto; margin-right: auto; text-align: right;font-size: 28px; line-height: 1.5'>KUPPE</p>","null","html-keyboard-response","331","460876","0.0-11.0-0.11-1.11","erkuoqnk6aj4vt1","strength","162","learning","NA","KUPPE","true","true","weak","","4","",""
"null","","null","html-keyboard-response","332","461377","0.0-11.0-0.12-0.12","erkuoqnk6aj4vt1","strength","162","learning","NA","NADEL","true","true","weak","","4","",""
"null","<p style='position: relative; margin-left: auto; margin-right: auto; text-align: right;font-size: 28px; line-height: 1.5'>NADEL</p>","null","html-keyboard-response","333","463378","0.0-11.0-0.12-1.12","erkuoqnk6aj4vt1","strength","163","learning","NA","NADEL","true","true","weak","","4","",""
"null","","null","html-keyboard-response","334","463879","0.0-11.0-0.13-0.13","erkuoqnk6aj4vt1","strength","163","learning","NA","SEGEL","true","true","strong","","4","",""
"null","<p style='position: relative; margin-left: auto; margin-right: auto; text-align: right;font-size: 28px; line-height: 1.5'>SEGEL</p>","null","html-keyboard-response","335","465882","0.0-11.0-0.13-1.13","erkuoqnk6aj4vt1","strength","164","learning","NA","SEGEL","true","true","strong","","4","",""
"null","","null","html-keyboard-response","336","466384","0.0-11.0-0.14-0.14","erkuoqnk6aj4vt1","strength","164","learning","NA","BÖRSE","true","true","weak","","4","",""
"null","<p style='position: relative; margin-left: auto; margin-right: auto; text-align: right;font-size: 28px; line-height: 1.5'>BÖRSE</p>","null","html-keyboard-response","337","468386","0.0-11.0-0.14-1.14","erkuoqnk6aj4vt1","strength","165","learning","NA","BÖRSE","true","true","weak","","4","",""
"null","","null","html-keyboard-response","338","468888","0.0-11.0-0.15-0.15","erkuoqnk6aj4vt1","strength","165","learning","NA","VERLAUF","false","true","strong","","4","",""
"null","<p style='position: relative; margin-left: auto; margin-right: auto; text-align: right;font-size: 28px; line-height: 1.5'>VERLAUF</p>","null","html-keyboard-response","339","470890","0.0-11.0-0.15-1.15","erkuoqnk6aj4vt1","strength","166","learning","NA","VERLAUF","false","true","strong","","4","",""
"null","","null","html-keyboard-response","340","471392","0.0-11.0-0.16-0.16","erkuoqnk6aj4vt1","strength","166","learning","NA","DATUM","true","true","strong","","4","",""
"null","<p style='position: relative; margin-left: auto; margin-right: auto; text-align: right;font-size: 28px; line-height: 1.5'>DATUM</p>","null","html-keyboard-response","341","473394","0.0-11.0-0.16-1.16","erkuoqnk6aj4vt1","strength","167","learning","NA","DATUM","true","true","strong","","4","",""
"null","","null","html-keyboard-response","342","473896","0.0-11.0-0.17-0.17","erkuoqnk6aj4vt1","strength","167","learning","NA","NUMMER","false","true","strong","","4","",""
"null","<p style='position: relative; margin-left: auto; margin-right: auto; text-align: right;font-size: 28px; line-height: 1.5'>NUMMER</p>","null","html-keyboard-response","343","475898","0.0-11.0-0.17-1.17","erkuoqnk6aj4vt1","strength","168","learning","NA","NUMMER","false","true","strong","","4","",""
"null","","null","html-keyboard-response","344","476400","0.0-11.0-0.18-0.18","erkuoqnk6aj4vt1","strength","168","learning","NA","IMBISS","false","true","strong","","4","",""
"null","<p style='position: relative; margin-left: auto; margin-right: auto; text-align: right;font-size: 28px; line-height: 1.5'>IMBISS</p>","null","html-keyboard-response","345","478402","0.0-11.0-0.18-1.18","erkuoqnk6aj4vt1","strength","169","learning","NA","IMBISS","false","true","strong","","4","",""
"null","","null","html-keyboard-response","346","478904","0.0-11.0-0.19-0.19","erkuoqnk6aj4vt1","strength","169","learning","NA","BESEN","true","true","weak","","4","",""
"null","<p style='position: relative; margin-left: auto; margin-right: auto; text-align: right;font-size: 28px; line-height: 1.5'>BESEN</p>","null","html-keyboard-response","347","480906","0.0-11.0-0.19-1.19","erkuoqnk6aj4vt1","strength","170","learning","NA","BESEN","true","true","weak","","4","",""
"null","","null","html-keyboard-response","348","481408","0.0-11.0-0.20-0.20","erkuoqnk6aj4vt1","strength","170","learning","NA","AMPEL","true","true","weak","","4","",""
"null","<p style='position: relative; margin-left: auto; margin-right: auto; text-align: right;font-size: 28px; line-height: 1.5'>AMPEL</p>","null","html-keyboard-response","349","483410","0.0-11.0-0.20-1.20","erkuoqnk6aj4vt1","strength","171","learning","NA","AMPEL","true","true","weak","","4","",""
"null","","null","html-keyboard-response","350","483912","0.0-11.0-0.21-0.21","erkuoqnk6aj4vt1","strength","171","learning","NA","TAXI","true","true","strong","","4","",""
"null","<p style='position: relative; margin-left: auto; margin-right: auto; text-align: right;font-size: 28px; line-height: 1.5'>TAXI</p>","null","html-keyboard-response","351","485914","0.0-11.0-0.21-1.21","erkuoqnk6aj4vt1","strength","172","learning","NA","TAXI","true","true","strong","","4","",""
"null","","null","html-keyboard-response","352","486416","0.0-11.0-0.22-0.22","erkuoqnk6aj4vt1","strength","172","learning","NA","BAUWERK","true","true","strong","","4","",""
"null","<p style='position: relative; margin-left: auto; margin-right: auto; text-align: right;font-size: 28px; line-height: 1.5'>BAUWERK</p>","null","html-keyboard-response","353","488419","0.0-11.0-0.22-1.22","erkuoqnk6aj4vt1","strength","173","learning","NA","BAUWERK","true","true","strong","","4","",""
"null","","null","html-keyboard-response","354","488921","0.0-11.0-0.23-0.23","erkuoqnk6aj4vt1","strength","173","learning","NA","DAMPF","false","true","strong","","4","",""
"null","<p style='position: relative; margin-left: auto; margin-right: auto; text-align: right;font-size: 28px; line-height: 1.5'>DAMPF</p>","null","html-keyboard-response","355","490923","0.0-11.0-0.23-1.23","erkuoqnk6aj4vt1","strength","174","learning","NA","DAMPF","false","true","strong","","4","",""
"null","","null","html-keyboard-response","356","491424","0.0-11.0-0.24-0.24","erkuoqnk6aj4vt1","strength","174","learning","NA","SEKT","false","true","strong","","4","",""
"null","<p style='position: relative; margin-left: auto; margin-right: auto; text-align: right;font-size: 28px; line-height: 1.5'>SEKT</p>","null","html-keyboard-response","357","493426","0.0-11.0-0.24-1.24","erkuoqnk6aj4vt1","strength","175","learning","NA","SEKT","false","true","strong","","4","",""
"null","","null","html-keyboard-response","358","493928","0.0-11.0-0.25-0.25","erkuoqnk6aj4vt1","strength","175","learning","NA","BLEI","false","true","strong","","4","",""
"null","<p style='position: relative; margin-left: auto; margin-right: auto; text-align: right;font-size: 28px; line-height: 1.5'>BLEI</p>","null","html-keyboard-response","359","495931","0.0-11.0-0.25-1.25","erkuoqnk6aj4vt1","strength","176","learning","NA","BLEI","false","true","strong","","4","",""
"null","","null","html-keyboard-response","360","496433","0.0-11.0-0.26-0.26","erkuoqnk6aj4vt1","strength","176","learning","NA","SAMMLUNG","false","true","strong","","4","",""
"null","<p style='position: relative; margin-left: auto; margin-right: auto; text-align: right;font-size: 28px; line-height: 1.5'>SAMMLUNG</p>","null","html-keyboard-response","361","498435","0.0-11.0-0.26-1.26","erkuoqnk6aj4vt1","strength","177","learning","NA","SAMMLUNG","false","true","strong","","4","",""
"null","","null","html-keyboard-response","362","498937","0.0-11.0-0.27-0.27","erkuoqnk6aj4vt1","strength","177","learning","NA","EFFEKT","true","true","strong","","4","",""
"null","<p style='position: relative; margin-left: auto; margin-right: auto; text-align: right;font-size: 28px; line-height: 1.5'>EFFEKT</p>","null","html-keyboard-response","363","500939","0.0-11.0-0.27-1.27","erkuoqnk6aj4vt1","strength","178","learning","NA","EFFEKT","true","true","strong","","4","",""
"null","","null","html-keyboard-response","364","501441","0.0-11.0-0.28-0.28","erkuoqnk6aj4vt1","strength","178","learning","NA","DICHTER","true","true","strong","","4","",""
"null","<p style='position: relative; margin-left: auto; margin-right: auto; text-align: right;font-size: 28px; line-height: 1.5'>DICHTER</p>","null","html-keyboard-response","365","503443","0.0-11.0-0.28-1.28","erkuoqnk6aj4vt1","strength","179","learning","NA","DICHTER","true","true","strong","","4","",""
"null","","null","html-keyboard-response","366","503945","0.0-11.0-0.29-0.29","erkuoqnk6aj4vt1","strength","179","learning","NA","QUADRAT","true","true","weak","","4","",""
"null","<p style='position: relative; margin-left: auto; margin-right: auto; text-align: right;font-size: 28px; line-height: 1.5'>QUADRAT</p>","null","html-keyboard-response","367","505947","0.0-11.0-0.29-1.29","erkuoqnk6aj4vt1","strength","180","learning","NA","QUADRAT","true","true","weak","","4","",""
"null","","null","html-keyboard-response","368","506449","0.0-11.0-0.30-0.30","erkuoqnk6aj4vt1","strength","180","learning","NA","RADIO","false","true","strong","","4","",""
"null","<p style='position: relative; margin-left: auto; margin-right: auto; text-align: right;font-size: 28px; line-height: 1.5'>RADIO</p>","null","html-keyboard-response","369","508451","0.0-11.0-0.30-1.30","erkuoqnk6aj4vt1","strength","181","learning","NA","RADIO","false","true","strong","","4","",""
"null","","null","html-keyboard-response","370","508953","0.0-11.0-0.31-0.31","erkuoqnk6aj4vt1","strength","181","learning","NA","GESCHÄFT","true","true","weak","","4","",""
"null","<p style='position: relative; margin-left: auto; margin-right: auto; text-align: right;font-size: 28px; line-height: 1.5'>GESCHÄFT</p>","null","html-keyboard-response","371","510954","0.0-11.0-0.31-1.31","erkuoqnk6aj4vt1","strength","182","learning","NA","GESCHÄFT","true","true","weak","","4","",""
"null","","null","html-keyboard-response","372","511456","0.0-11.0-0.32-0.32","erkuoqnk6aj4vt1","strength","182","learning","NA","MANTEL","true","true","weak","","4","",""
"null","<p style='position: relative; margin-left: auto; margin-right: auto; text-align: right;font-size: 28px; line-height: 1.5'>MANTEL</p>","null","html-keyboard-response","373","513459","0.0-11.0-0.32-1.32","erkuoqnk6aj4vt1","strength","183","learning","NA","MANTEL","true","true","weak","","4","",""
"null","","null","html-keyboard-response","374","513960","0.0-11.0-0.33-0.33","erkuoqnk6aj4vt1","strength","183","learning","NA","SCHNUR","false","true","strong","","4","",""
"null","<p style='position: relative; margin-left: auto; margin-right: auto; text-align: right;font-size: 28px; line-height: 1.5'>SCHNUR</p>","null","html-keyboard-response","375","515962","0.0-11.0-0.33-1.33","erkuoqnk6aj4vt1","strength","184","learning","NA","SCHNUR","false","true","strong","","4","",""
"null","","null","html-keyboard-response","376","516463","0.0-11.0-0.34-0.34","erkuoqnk6aj4vt1","strength","184","learning","NA","WORT","true","true","strong","","4","",""
"null","<p style='position: relative; margin-left: auto; margin-right: auto; text-align: right;font-size: 28px; line-height: 1.5'>WORT</p>","null","html-keyboard-response","377","518464","0.0-11.0-0.34-1.34","erkuoqnk6aj4vt1","strength","185","learning","NA","WORT","true","true","strong","","4","",""
"null","","null","html-keyboard-response","378","518966","0.0-11.0-0.35-0.35","erkuoqnk6aj4vt1","strength","185","learning","NA","LÄUFER","true","true","weak","","4","",""
"null","<p style='position: relative; margin-left: auto; margin-right: auto; text-align: right;font-size: 28px; line-height: 1.5'>LÄUFER</p>","null","html-keyboard-response","379","520969","0.0-11.0-0.35-1.35","erkuoqnk6aj4vt1","strength","186","learning","NA","LÄUFER","true","true","weak","","4","",""
"null","","null","html-keyboard-response","380","521471","0.0-11.0-0.36-0.36","erkuoqnk6aj4vt1","strength","186","learning","NA","TASCHE","true","true","strong","","4","",""
"null","<p style='position: relative; margin-left: auto; margin-right: auto; text-align: right;font-size: 28px; line-height: 1.5'>TASCHE</p>","null","html-keyboard-response","381","523473","0.0-11.0-0.36-1.36","erkuoqnk6aj4vt1","strength","187","learning","NA","TASCHE","true","true","strong","","4","",""
"null","","null","html-keyboard-response","382","523975","0.0-11.0-0.37-0.37","erkuoqnk6aj4vt1","strength","187","learning","NA","TEICH","false","true","strong","","4","",""
"null","<p style='position: relative; margin-left: auto; margin-right: auto; text-align: right;font-size: 28px; line-height: 1.5'>TEICH</p>","null","html-keyboard-response","383","525977","0.0-11.0-0.37-1.37","erkuoqnk6aj4vt1","strength","188","learning","NA","TEICH","false","true","strong","","4","",""
"null","","null","html-keyboard-response","384","526479","0.0-11.0-0.38-0.38","erkuoqnk6aj4vt1","strength","188","learning","NA","TRUPPE","true","true","strong","","4","",""
"null","<p style='position: relative; margin-left: auto; margin-right: auto; text-align: right;font-size: 28px; line-height: 1.5'>TRUPPE</p>","null","html-keyboard-response","385","528482","0.0-11.0-0.38-1.38","erkuoqnk6aj4vt1","strength","189","learning","NA","TRUPPE","true","true","strong","","4","",""
"null","","null","html-keyboard-response","386","528983","0.0-11.0-0.39-0.39","erkuoqnk6aj4vt1","strength","189","learning","NA","VERMERK","false","true","strong","","4","",""
"null","<p style='position: relative; margin-left: auto; margin-right: auto; text-align: right;font-size: 28px; line-height: 1.5'>VERMERK</p>","null","html-keyboard-response","387","530985","0.0-11.0-0.39-1.39","erkuoqnk6aj4vt1","strength","190","learning","NA","VERMERK","false","true","strong","","4","",""
"null","","null","html-keyboard-response","388","531488","0.0-11.0-0.40-0.40","erkuoqnk6aj4vt1","strength","190","learning","NA","DATUM","false","true","strong","","4","",""
"null","<p style='position: relative; margin-left: auto; margin-right: auto; text-align: right;font-size: 28px; line-height: 1.5'>DATUM</p>","null","html-keyboard-response","389","533490","0.0-11.0-0.40-1.40","erkuoqnk6aj4vt1","strength","191","learning","NA","DATUM","false","true","strong","","4","",""
"null","","null","html-keyboard-response","390","533992","0.0-11.0-0.41-0.41","erkuoqnk6aj4vt1","strength","191","learning","NA","IMBISS","false","true","strong","","4","",""
"null","<p style='position: relative; margin-left: auto; margin-right: auto; text-align: right;font-size: 28px; line-height: 1.5'>IMBISS</p>","null","html-keyboard-response","391","535994","0.0-11.0-0.41-1.41","erkuoqnk6aj4vt1","strength","192","learning","NA","IMBISS","false","true","strong","","4","",""
"null","","null","html-keyboard-response","392","536496","0.0-11.0-0.42-0.42","erkuoqnk6aj4vt1","strength","192","learning","NA","SEKT","false","true","strong","","4","",""
"null","<p style='position: relative; margin-left: auto; margin-right: auto; text-align: right;font-size: 28px; line-height: 1.5'>SEKT</p>","null","html-keyboard-response","393","538497","0.0-11.0-0.42-1.42","erkuoqnk6aj4vt1","strength","193","learning","NA","SEKT","false","true","strong","","4","",""
"null","","null","html-keyboard-response","394","538999","0.0-11.0-0.43-0.43","erkuoqnk6aj4vt1","strength","193","learning","NA","KRUSTE","true","true","weak","","4","",""
"null","<p style='position: relative; margin-left: auto; margin-right: auto; text-align: right;font-size: 28px; line-height: 1.5'>KRUSTE</p>","null","html-keyboard-response","395","541002","0.0-11.0-0.43-1.43","erkuoqnk6aj4vt1","strength","194","learning","NA","KRUSTE","true","true","weak","","4","",""
"null","","null","html-keyboard-response","396","541504","0.0-11.0-0.44-0.44","erkuoqnk6aj4vt1","strength","194","learning","NA","ELLBOGEN","false","true","strong","","4","",""
"null","<p style='position: relative; margin-left: auto; margin-right: auto; text-align: right;font-size: 28px; line-height: 1.5'>ELLBOGEN</p>","null","html-keyboard-response","397","543506","0.0-11.0-0.44-1.44","erkuoqnk6aj4vt1","strength","195","learning","NA","ELLBOGEN","false","true","strong","","4","",""
"null","","null","html-keyboard-response","398","544008","0.0-11.0-0.45-0.45","erkuoqnk6aj4vt1","strength","195","learning","NA","SCHÜRZE","false","true","strong","","4","",""
"null","<p style='position: relative; margin-left: auto; margin-right: auto; text-align: right;font-size: 28px; line-height: 1.5'>SCHÜRZE</p>","null","html-keyboard-response","399","546009","0.0-11.0-0.45-1.45","erkuoqnk6aj4vt1","strength","196","learning","NA","SCHÜRZE","false","true","strong","","4","",""
"null","","null","html-keyboard-response","400","546511","0.0-11.0-0.46-0.46","erkuoqnk6aj4vt1","strength","196","learning","NA","ANKER","true","true","weak","","4","",""
"null","<p style='position: relative; margin-left: auto; margin-right: auto; text-align: right;font-size: 28px; line-height: 1.5'>ANKER</p>","null","html-keyboard-response","401","548513","0.0-11.0-0.46-1.46","erkuoqnk6aj4vt1","strength","197","learning","NA","ANKER","true","true","weak","","4","",""
"null","","null","html-keyboard-response","402","549015","0.0-11.0-0.47-0.47","erkuoqnk6aj4vt1","strength","197","learning","NA","BLEI","false","true","strong","","4","",""
"null","<p style='position: relative; margin-left: auto; margin-right: auto; text-align: right;font-size: 28px; line-height: 1.5'>BLEI</p>","null","html-keyboard-response","403","551018","0.0-11.0-0.47-1.47","erkuoqnk6aj4vt1","strength","198","learning","NA","BLEI","false","true","strong","","4","",""
"null","","null","html-keyboard-response","404","551520","0.0-11.0-0.48-0.48","erkuoqnk6aj4vt1","strength","198","learning","NA","REIGEN","false","true","strong","","4","",""
